Date,Time, MagX , MagY , MagZ , AccX , AccY , AccZ , GyroX , GyroY , GyroZ , Temp , Roll , Pitch , Yaw
2021/10/13,23:34.7,47.125,31.875,130.625,0.026,-0.002,1.034,0.061,-0.061,0,29.06,-1.47,-0.18,142.13
2021/10/13,23:35.7,45.375,31.375,129.125,0.026,-0.002,1.034,0.061,0,-0.03,29.08,-1.5,-0.22,142.16
2021/10/13,23:36.7,45.75,35.125,129.5,0.026,-0.003,1.033,0.122,0.03,0,29.1,-1.38,-0.06,142.08
2021/10/13,23:37.7,44.125,34.5,126.875,0.026,-0.004,1.033,0,0.03,0.03,29.07,-1.28,0.04,142.01
2021/10/13,23:38.7,46.125,36.125,132.125,0.025,-0.003,1.033,0.061,0,0,29.12,-1.22,0.12,141.94
2021/10/13,23:39.7,45.75,31.375,132.75,0.026,-0.002,1.032,0.03,-0.03,-0.03,29.07,-1.37,-0.06,142.01
2021/10/13,23:40.7,46,30.75,125.875,0.026,-0.002,1.034,0.03,0.03,0.03,29.11,-1.49,-0.21,142.09
2021/10/13,23:41.7,45,32.875,125.375,0.025,-0.002,1.033,0.03,0,0.061,29.13,-1.43,-0.14,142.07
2021/10/13,23:42.7,45.125,33.625,127.625,0.026,-0.002,1.033,0.061,-0.03,0.03,29.13,-1.38,-0.08,142.03
2021/10/13,23:43.7,47,31.75,130.375,0.025,-0.002,1.032,0.03,0,0,29.14,-1.47,-0.2,142.1
2021/10/13,23:44.7,44.5,34.625,131.75,0.025,-0.002,1.031,0,-0.03,-0.03,29.14,-1.33,-0.03,142.01
2021/10/13,23:45.7,42.5,33.875,127.5,0.025,-0.002,1.032,0.061,-0.061,0,29.14,-1.22,0.11,141.93
2021/10/13,23:46.7,46,35.25,127,0.024,-0.002,1.032,0,-0.03,-0.061,29.14,-1.21,0.11,141.89
2021/10/13,23:47.7,46.125,32.625,129.375,0.025,-0.003,1.032,0.03,-0.03,-0.03,29.18,-1.31,-0.03,141.94
2021/10/13,23:48.7,43.5,32,128,0.025,-0.003,1.034,0,0,0.03,29.18,-1.31,-0.03,141.93
2021/10/13,23:49.7,44.625,28.625,131.75,0.026,-0.003,1.032,0.03,-0.03,0,29.19,-1.49,-0.27,142.03
2021/10/13,23:50.7,44.375,34.5,127.875,0.025,-0.003,1.033,0.061,-0.03,0,29.22,-1.34,-0.09,141.95
2021/10/13,23:51.7,43.375,34,130.75,0.025,-0.002,1.033,0,-0.061,0.03,29.19,-1.25,0.04,141.88
2021/10/13,23:52.6,45,31.25,128.625,0.026,-0.003,1.034,0.03,0,0,29.22,-1.37,-0.1,141.93
2021/10/13,23:53.7,47.375,34.25,129.875,0.025,-0.003,1.033,0,-0.03,0,29.19,-1.38,-0.13,141.94
2021/10/13,23:54.6,43.25,35.375,130.75,0.025,-0.002,1.033,0,-0.061,0.03,29.22,-1.21,0.08,141.82
2021/10/13,23:55.6,44.75,32.125,129.375,0.026,-0.003,1.034,0,-0.03,-0.03,29.23,-1.3,-0.03,141.85
2021/10/13,23:56.6,45.25,32,130.5,0.024,-0.002,1.032,0.03,0.03,0,29.23,-1.36,-0.1,141.89
2021/10/13,23:57.6,45,36.625,129.875,0.025,-0.002,1.032,-0.03,-0.03,0.03,29.25,-1.2,0.09,141.78
2021/10/13,23:58.6,44.625,34.75,133.875,0.025,-0.003,1.033,0,-0.061,0.03,29.26,-1.18,0.11,141.74
2021/10/13,23:59.6,45.375,34.125,129.375,0.025,-0.003,1.033,0.03,-0.061,0.061,29.26,-1.23,0.06,141.74
2021/10/13,24:00.6,44.375,34.625,131.75,0.026,-0.003,1.033,0,-0.03,0.03,29.24,-1.21,0.1,141.69
2021/10/13,24:01.6,47,31.125,131.125,0.026,-0.002,1.033,-0.03,-0.03,0,29.24,-1.41,-0.15,141.8
2021/10/13,24:02.6,43.125,34,123.5,0.025,-0.002,1.031,0.03,0,0.03,29.25,-1.29,0,141.72
2021/10/13,24:03.6,41.125,32.5,129,0.026,-0.002,1.032,0,-0.061,0.091,29.26,-1.22,0.09,141.67
2021/10/13,24:04.6,43.25,34.625,129.5,0.026,-0.002,1.033,0.061,-0.03,0.03,29.3,-1.17,0.17,141.6
2021/10/13,24:05.6,45.75,34,132,0.026,-0.002,1.032,0,-0.03,0,29.3,-1.25,0.08,141.62
2021/10/13,24:06.6,45.125,32.25,128.25,0.024,-0.003,1.032,0,0.03,0,29.3,-1.32,-0.05,141.66
2021/10/13,24:07.6,42.875,34.25,126.75,0.024,-0.002,1.032,0,-0.03,0.03,29.29,-1.22,0.07,141.59
2021/10/13,24:08.5,44.375,32.375,132.25,0.025,-0.001,1.033,0,-0.091,0.03,29.31,-1.29,0.01,141.61
2021/10/13,24:09.5,44.375,32.875,129.875,0.025,-0.003,1.033,0.03,-0.03,0.03,29.28,-1.32,-0.02,141.61
2021/10/13,24:10.5,45.25,35.25,125.875,0.025,-0.003,1.033,0.03,-0.03,-0.03,29.26,-1.27,0.04,141.56
2021/10/13,24:11.5,45.375,34.625,128,0.025,-0.004,1.032,0.03,-0.03,0.03,29.26,-1.27,0.02,141.54
2021/10/13,24:12.5,44.125,32.5,131.875,0.026,-0.002,1.034,0,-0.091,0,29.28,-1.32,-0.02,141.55
2021/10/13,24:13.5,44.375,32.25,131.625,0.025,-0.002,1.032,0.03,-0.03,0.03,29.26,-1.36,-0.07,141.56
2021/10/13,24:14.5,43.5,34.25,130.875,0.024,-0.003,1.032,0.061,-0.061,0,29.28,-1.26,0.02,141.5
2021/10/13,24:15.5,43.375,41.5,129.5,0.025,-0.003,1.033,0.03,-0.03,0,29.26,-0.91,0.41,141.24
2021/10/13,24:16.5,43.5,32.625,131,0.025,-0.002,1.033,0.03,-0.03,0,29.32,-1.08,0.22,141.28
2021/10/13,24:17.5,48,37.125,130,0.026,-0.003,1.033,0.03,-0.091,-0.03,29.27,-1.15,0.14,141.28
2021/10/13,24:18.5,43.125,32,133.125,0.024,-0.004,1.033,0.03,-0.03,-0.03,29.28,-1.22,0.03,141.3
2021/10/13,24:19.5,40.625,35.25,131.75,0.026,-0.002,1.034,0.03,-0.091,0,29.34,-1.08,0.23,141.17
2021/10/13,24:20.5,47.625,30.75,126,0.025,-0.003,1.032,0.061,0,0.03,29.37,-1.38,-0.17,141.36
2021/10/13,24:21.5,45.625,30,127.75,0.025,-0.002,1.033,-0.03,-0.03,0.061,29.35,-1.52,-0.35,141.46
2021/10/13,24:22.5,42.375,30.5,130.75,0.025,-0.002,1.034,0.03,0,0.091,29.32,-1.49,-0.29,141.45
2021/10/13,24:23.5,42,34.875,124.5,0.026,-0.002,1.032,0.061,-0.061,0.061,29.36,-1.28,-0.02,141.32
2021/10/13,24:24.5,43.5,31.5,131,0.025,-0.003,1.033,0.03,-0.061,-0.03,29.36,-1.34,-0.1,141.35
2021/10/13,24:25.4,46.375,32.875,127.75,0.025,-0.002,1.033,-0.03,-0.061,0.03,29.34,-1.42,-0.18,141.4
2021/10/13,24:26.4,46.875,31,127.875,0.025,-0.002,1.032,0,-0.061,-0.061,29.35,-1.55,-0.35,141.49
2021/10/13,24:27.4,45.625,31.625,123.375,0.025,-0.003,1.032,0.03,-0.061,0.03,29.36,-1.57,-0.37,141.53
2021/10/13,24:28.4,45.5,30.25,130,0.026,-0.003,1.033,0.061,-0.03,0,29.35,-1.63,-0.44,141.59
2021/10/13,24:29.4,45.25,31.875,127.125,0.024,-0.003,1.033,0.03,-0.03,0.03,29.39,-1.58,-0.39,141.59
2021/10/13,24:30.4,45.875,32.5,132.625,0.026,-0.003,1.033,0.091,-0.03,-0.03,29.4,-1.55,-0.35,141.59
2021/10/13,24:31.4,36,33.5,131.375,0.026,-0.002,1.033,-0.03,-0.03,0.03,29.38,-1.15,0.11,141.38
2021/10/13,24:32.4,44.75,31.125,127.5,0.026,-0.002,1.032,0,-0.03,0,29.4,-1.32,-0.09,141.46
2021/10/13,24:33.4,45.5,31.25,129.375,0.026,-0.001,1.033,0,-0.061,-0.03,29.4,-1.44,-0.21,141.53
2021/10/13,24:34.4,44.875,34.875,129,0.025,-0.004,1.032,0,-0.03,0.03,29.39,-1.34,-0.1,141.47
2021/10/13,24:35.4,44,35.25,130.75,0.025,-0.002,1.033,0,-0.03,-0.03,29.41,-1.24,0.03,141.39
2021/10/13,24:36.4,42.75,33,124.375,0.026,-0.002,1.032,0,-0.091,0.03,29.41,-1.24,0.05,141.36
2021/10/13,24:37.4,43.5,32.5,128.125,0.025,-0.002,1.032,0.03,-0.03,0,29.42,-1.29,0,141.37
2021/10/13,24:38.4,45.375,32.625,130,0.025,-0.002,1.034,0,-0.091,-0.03,29.42,-1.37,-0.08,141.4
2021/10/13,24:39.4,45.5,33.125,128.25,0.025,-0.003,1.032,0.061,-0.091,0,29.42,-1.4,-0.13,141.42
2021/10/13,24:40.3,41.125,33.375,125.75,0.025,-0.003,1.034,-0.03,0,0.03,29.41,-1.26,0.03,141.33
2021/10/13,24:41.3,44.625,30.5,130.25,0.024,-0.004,1.033,-0.03,-0.03,0,29.42,-1.39,-0.17,141.41
2021/10/13,24:42.3,47.375,32.375,130,0.024,-0.003,1.033,0.03,-0.03,-0.061,29.42,-1.48,-0.29,141.48
2021/10/13,24:43.3,45.875,30.875,129.25,0.025,-0.002,1.033,0,-0.03,0.03,29.39,-1.55,-0.37,141.54
2021/10/13,24:44.3,46,31.625,127.625,0.026,-0.004,1.032,0,0,0.03,29.36,-1.58,-0.4,141.58
2021/10/13,24:45.3,44.25,34.75,124.375,0.026,-0.003,1.032,0.03,-0.061,-0.03,29.39,-1.41,-0.19,141.48
2021/10/13,24:46.3,44.75,32.75,132,0.025,-0.003,1.031,0.03,-0.061,0.03,29.36,-1.4,-0.18,141.48
2021/10/13,24:47.3,44.25,34.875,129.375,0.026,-0.002,1.032,0,-0.03,0,29.37,-1.3,-0.04,141.41
2021/10/13,24:48.3,48.875,35.125,132.25,0.025,-0.003,1.033,0,0,0.03,29.38,-1.37,-0.13,141.45
2021/10/13,24:49.3,38.875,31.5,121.75,0.025,-0.003,1.032,0,-0.03,0.03,29.4,-1.24,0.03,141.36
2021/10/13,24:50.2,43.25,34.375,131.125,0.024,-0.002,1.033,-0.03,-0.03,0.03,29.36,-1.19,0.09,141.31
2021/10/13,24:51.2,45.625,32.125,128.75,0.026,-0.002,1.032,0,-0.03,-0.03,29.4,-1.34,-0.08,141.38
2021/10/13,24:52.2,44.625,34.625,130,0.025,-0.003,1.032,0.03,-0.091,0,29.37,-1.29,-0.03,141.34
2021/10/13,24:53.2,43.125,32.125,125,0.026,-0.002,1.032,0,0,-0.03,29.34,-1.33,-0.05,141.34
2021/10/13,24:54.2,46.625,35.625,125.875,0.025,-0.003,1.033,0.091,-0.061,0,29.31,-1.31,-0.03,141.32
2021/10/13,24:55.2,43.75,34.125,130.125,0.026,-0.003,1.032,-0.03,-0.061,-0.03,29.31,-1.28,0.02,141.27
2021/10/13,24:56.2,43.5,37,129.125,0.025,-0.002,1.031,0.061,0.03,-0.03,29.27,-1.12,0.2,141.15
2021/10/13,24:57.2,41.625,33.875,131.5,0.026,-0.002,1.032,0.03,0,0.03,29.24,-1.1,0.23,141.1
2021/10/13,24:58.2,42.125,33.875,125,0.025,-0.003,1.033,0.03,-0.061,0.03,29.29,-1.11,0.21,141.07
2021/10/13,24:59.2,44.5,34.5,127.5,0.025,-0.003,1.033,0.03,-0.061,0,29.26,-1.17,0.13,141.07
2021/10/13,25:00.2,42.125,31.5,127.75,0.024,-0.003,1.032,0.03,-0.061,-0.03,29.35,-1.24,0.03,141.09
2021/10/13,25:01.2,43.125,34.25,127.5,0.025,-0.002,1.033,0.061,-0.03,-0.061,29.32,-1.22,0.08,141.04
2021/10/13,25:02.2,41.875,33.375,128.125,0.026,-0.001,1.032,0.03,-0.061,0,29.32,-1.2,0.13,141
2021/10/13,25:03.2,44.625,33.25,131.75,0.026,-0.003,1.034,0,-0.061,-0.061,29.38,-1.29,0.02,141.03
2021/10/13,25:04.2,46.75,33.125,128.5,0.026,-0.003,1.034,0,-0.061,0.03,29.41,-1.42,-0.13,141.1
2021/10/13,25:05.2,47.25,32.5,128.375,0.026,-0.002,1.034,-0.03,-0.091,0.03,29.39,-1.53,-0.27,141.17
2021/10/13,25:06.2,41,30.25,128.375,0.026,-0.003,1.034,0,-0.03,0,29.41,-1.49,-0.22,141.16
2021/10/13,25:07.2,39.875,31.25,125.125,0.026,-0.002,1.034,0.061,-0.091,-0.03,29.37,-1.38,-0.08,141.1
2021/10/13,25:08.2,45.25,31.625,129,0.025,-0.003,1.034,0,-0.061,-0.03,29.4,-1.48,-0.21,141.15
2021/10/13,25:09.2,43.375,30,129.25,0.026,-0.003,1.034,0.03,-0.061,0.03,29.41,-1.54,-0.29,141.2
2021/10/13,25:10.2,45.25,37.75,128.75,0.026,-0.001,1.034,0,-0.091,0,29.4,-1.32,-0.01,141.06
2021/10/13,25:11.2,45.875,31.25,129.25,0.025,-0.002,1.031,-0.03,-0.091,0,29.36,-1.47,-0.2,141.16
2021/10/13,25:12.2,43.625,35,126,0.026,-0.002,1.033,0,-0.03,0,29.39,-1.34,-0.04,141.07
2021/10/13,25:13.1,43.375,32.125,132.375,0.026,-0.003,1.033,0.03,-0.091,0,29.41,-1.37,-0.08,141.08
2021/10/13,25:14.1,45,31,126.125,0.026,-0.002,1.034,0.061,-0.03,-0.061,29.4,-1.5,-0.22,141.16
2021/10/13,25:15.1,44.75,36,127,0.025,-0.002,1.033,0.03,-0.091,0,29.41,-1.35,-0.05,141.07
2021/10/13,25:16.1,41.625,31.75,130.25,0.025,-0.002,1.032,0,0,0,29.39,-1.33,-0.03,141.05
2021/10/13,25:17.1,46.125,35.75,130.875,0.026,-0.002,1.031,0.03,-0.03,-0.061,29.4,-1.32,0,141.02
2021/10/13,25:18.1,43.875,32.5,130.125,0.025,-0.003,1.033,0,-0.03,0.03,29.38,-1.36,-0.06,141.04
2021/10/13,25:19.1,45.625,31.875,132.75,0.025,-0.003,1.032,0.03,-0.091,-0.03,29.41,-1.46,-0.19,141.1
2021/10/13,25:20.1,43.25,30.75,127.75,0.025,-0.003,1.032,0,0.03,0,29.42,-1.48,-0.25,141.13
2021/10/13,25:21.1,45.25,33,126.75,0.025,-0.003,1.032,0.03,-0.03,0,29.42,-1.48,-0.24,141.13
2021/10/13,25:22.1,45,34,130.875,0.026,-0.003,1.03,0.03,-0.061,-0.03,29.4,-1.43,-0.18,141.11
2021/10/13,25:23.1,46.75,33,131.625,0.026,-0.001,1.032,0,-0.061,-0.03,29.4,-1.49,-0.24,141.15
2021/10/13,25:24.1,40.5,29.5,129.375,0.026,-0.002,1.032,-0.03,-0.03,0.03,29.4,-1.48,-0.21,141.15
2021/10/13,25:25.1,46.75,35.5,125,0.026,-0.002,1.033,0.061,-0.03,0.03,29.43,-1.44,-0.14,141.12
2021/10/13,25:26.0,40.25,33.125,127.25,0.025,-0.002,1.034,-0.03,-0.061,0,29.43,-1.27,0.04,141.03
2021/10/13,25:27.0,44.125,32.75,127.875,0.026,-0.002,1.033,-0.03,-0.03,-0.03,29.46,-1.34,-0.04,141.04
2021/10/13,25:28.0,43.25,31.25,131,0.026,-0.002,1.034,0,-0.03,-0.03,29.43,-1.41,-0.11,141.07
2021/10/13,25:29.0,43.25,34.125,129.75,0.025,-0.002,1.032,0,-0.061,0.03,29.44,-1.33,-0.01,141.02
2021/10/13,25:30.0,44.625,30,125.25,0.026,-0.003,1.033,0.03,-0.061,0,29.46,-1.5,-0.24,141.13
2021/10/13,25:31.0,49.25,33.625,129.125,0.026,-0.003,1.034,0,-0.061,-0.03,29.46,-1.59,-0.36,141.21
2021/10/13,25:32.0,44,34.625,128.25,0.025,-0.002,1.033,0.061,-0.061,-0.03,29.48,-1.43,-0.16,141.12
2021/10/13,25:33.0,44.625,28.25,132.25,0.026,-0.003,1.033,0,-0.061,0.061,29.45,-1.61,-0.4,141.24
2021/10/13,25:34.0,43.5,31.375,128.875,0.026,-0.003,1.032,-0.03,-0.03,0,29.47,-1.56,-0.34,141.24
2021/10/13,25:35.0,45.375,38.5,131.25,0.025,-0.003,1.033,0,-0.091,0,29.47,-1.29,-0.03,141.08
2021/10/13,25:36.0,42.25,32.25,130.875,0.024,-0.003,1.032,0.03,-0.091,0,29.44,-1.29,-0.04,141.06
2021/10/13,25:37.0,45.625,33.5,128.125,0.025,-0.003,1.033,0,-0.091,-0.03,29.48,-1.35,-0.11,141.09
2021/10/13,25:38.0,41.75,29.25,130.875,0.025,-0.003,1.034,-0.03,-0.091,0,29.51,-1.43,-0.21,141.13
2021/10/13,25:39.0,46.375,31.75,130.75,0.025,-0.002,1.033,0.03,-0.03,0.061,29.5,-1.52,-0.31,141.2
2021/10/13,25:40.0,42.5,33.5,130.25,0.025,-0.003,1.033,-0.03,-0.061,0,29.5,-1.38,-0.15,141.13
2021/10/13,25:41.0,42.25,31,131.875,0.026,-0.002,1.032,-0.03,-0.061,0.061,29.53,-1.4,-0.15,141.13
2021/10/13,25:42.0,47.5,32,128.875,0.025,-0.002,1.033,0,-0.03,0,29.55,-1.53,-0.32,141.23
2021/10/13,25:43.0,43.125,34.5,124.75,0.025,-0.003,1.033,0,-0.03,0,29.51,-1.36,-0.13,141.14
2021/10/13,25:44.0,43,30.625,129.5,0.025,-0.003,1.034,0.03,-0.03,-0.03,29.57,-1.43,-0.19,141.17
2021/10/13,25:44.9,45.875,28.75,128.875,0.026,-0.003,1.033,0.03,-0.091,0.03,29.55,-1.63,-0.46,141.31
2021/10/13,25:45.9,44.125,34.875,133.125,0.025,-0.003,1.033,0.03,0,-0.03,29.56,-1.43,-0.22,141.21
2021/10/13,25:47.0,44.375,37.125,125,0.025,-0.002,1.033,0.03,-0.061,-0.061,29.59,-1.24,0.02,141.07
2021/10/13,25:47.9,41.5,35.125,124.625,0.026,-0.003,1.03,0,-0.091,0.03,29.53,-1.12,0.16,140.97
2021/10/13,25:48.9,43.75,33.75,128.5,0.025,-0.003,1.031,0.03,-0.122,0.03,29.5,-1.19,0.09,140.98
2021/10/13,25:49.9,45.875,31.5,131.375,0.025,-0.002,1.032,0.03,-0.091,-0.03,29.51,-1.38,-0.14,141.07
2021/10/13,25:50.9,47,33,131.125,0.025,-0.003,1.032,0.03,-0.061,-0.03,29.54,-1.47,-0.24,141.13
2021/10/13,25:51.9,43.875,31.875,127.375,0.025,-0.004,1.032,-0.03,-0.061,0,29.59,-1.47,-0.25,141.14
2021/10/13,25:52.9,44,35.375,126.125,0.025,-0.003,1.033,0,-0.091,-0.03,29.56,-1.33,-0.07,141.05
2021/10/13,25:53.9,44.625,34.25,129.25,0.024,-0.002,1.033,-0.03,-0.091,0,29.56,-1.3,-0.04,141.03
2021/10/13,25:54.9,42.25,32.375,128.5,0.026,-0.003,1.032,0,-0.03,-0.061,29.58,-1.3,-0.04,141.01
2021/10/13,25:55.9,42.75,34.625,129,0.025,-0.003,1.033,0.03,-0.03,0.03,29.58,-1.22,0.06,140.94
2021/10/13,25:56.9,41,33.5,125.5,0.026,-0.002,1.032,0,-0.091,0.061,29.64,-1.17,0.14,140.88
2021/10/13,25:57.9,44,32.875,130,0.025,-0.003,1.033,0.03,0,0,29.58,-1.26,0.02,140.91
2021/10/13,25:58.8,41.25,35.125,129.25,0.025,-0.003,1.032,0.03,-0.091,-0.03,29.58,-1.13,0.17,140.81
2021/10/13,25:59.8,41.125,32.125,130.5,0.025,-0.002,1.032,0,-0.061,0.03,29.63,-1.18,0.13,140.8
2021/10/13,26:00.9,41.75,34,130.25,0.025,-0.002,1.033,0,0,0,29.59,-1.15,0.16,140.76
2021/10/13,26:01.8,45,30.125,129.125,0.025,-0.002,1.032,-0.03,-0.061,0,29.63,-1.4,-0.15,140.89
2021/10/13,26:02.8,44.375,32.875,130.625,0.025,-0.002,1.033,0,-0.091,0.061,29.62,-1.4,-0.16,140.9
2021/10/13,26:03.8,45.125,32.75,129.375,0.025,-0.003,1.032,0.03,-0.061,-0.03,29.61,-1.44,-0.21,140.92
2021/10/13,26:04.8,46.125,32,130.5,0.025,-0.003,1.032,0.061,-0.091,0.061,29.63,-1.52,-0.31,140.99
2021/10/13,26:05.8,45,35.125,129.125,0.024,-0.004,1.032,0.03,-0.061,0,29.66,-1.4,-0.19,140.93
2021/10/13,26:06.8,43.5,38.5,127.75,0.025,-0.003,1.032,0.03,-0.091,-0.03,29.58,-1.15,0.11,140.75
2021/10/13,26:07.8,42.625,34.625,129,0.026,-0.002,1.031,0.061,-0.122,-0.03,29.59,-1.15,0.14,140.71
2021/10/13,26:08.8,43.625,33.5,133.375,0.025,-0.004,1.031,0.03,-0.061,0,29.63,-1.22,0.05,140.72
2021/10/13,26:09.8,42.5,33.25,129.375,0.025,-0.002,1.034,0,-0.091,0.03,29.64,-1.23,0.04,140.7
2021/10/13,26:10.8,46.125,33.875,128.125,0.025,-0.002,1.032,0,-0.03,-0.03,29.59,-1.34,-0.08,140.75
2021/10/13,26:11.8,44.25,32.125,128.875,0.025,-0.003,1.033,0.03,-0.03,0,29.6,-1.41,-0.17,140.79
2021/10/13,26:12.7,48.625,30.625,128,0.025,-0.003,1.033,0.03,0,0,29.61,-1.64,-0.47,140.96
2021/10/13,26:13.7,42,34.5,130.875,0.027,-0.002,1.035,0.03,-0.03,-0.061,29.58,-1.42,-0.17,140.84
2021/10/13,26:14.7,41.25,33.625,128,0.025,-0.004,1.033,0.091,-0.122,0,29.61,-1.29,-0.03,140.76
2021/10/13,26:15.7,45.5,32.75,128.75,0.025,-0.003,1.034,0.061,-0.091,0.03,29.63,-1.4,-0.15,140.81
2021/10/13,26:16.7,41.75,32,128,0.025,-0.002,1.033,-0.03,0,0.03,29.59,-1.36,-0.1,140.79
2021/10/13,26:17.7,43.75,33.375,132.125,0.025,-0.002,1.033,0.061,-0.091,0.03,29.63,-1.36,-0.08,140.78
2021/10/13,26:18.7,42.75,31.5,130.375,0.026,-0.003,1.033,0.061,-0.091,-0.03,29.64,-1.41,-0.13,140.8
2021/10/13,26:19.7,43.125,37.5,128.625,0.025,-0.003,1.034,0.03,-0.061,0.03,29.62,-1.19,0.11,140.66
2021/10/13,26:20.7,43.125,34.375,130.25,0.026,-0.002,1.033,-0.061,-0.03,0,29.63,-1.2,0.11,140.63
2021/10/13,26:21.7,41.375,33.875,127.375,0.026,-0.002,1.034,0.03,-0.03,0,29.63,-1.18,0.15,140.58
2021/10/13,26:22.7,40.375,34.125,129,0.025,-0.002,1.034,0.091,-0.061,-0.03,29.63,-1.11,0.23,140.51
2021/10/13,26:23.7,43,35.25,128.125,0.027,-0.002,1.033,0,-0.091,0,29.62,-1.14,0.22,140.47
2021/10/13,26:24.7,46.5,33.875,133.125,0.026,-0.002,1.032,0,-0.122,0,29.66,-1.32,0.01,140.55
2021/10/13,26:25.7,47.125,34,132.75,0.026,-0.002,1.034,0,-0.061,-0.03,29.62,-1.43,-0.13,140.61
2021/10/13,26:26.7,44,31.375,129.75,0.025,-0.002,1.033,0,0,0.03,29.64,-1.5,-0.21,140.66
2021/10/13,26:27.7,45.75,35.5,130.125,0.025,-0.003,1.032,0,-0.061,0.061,29.59,-1.43,-0.14,140.63
2021/10/13,26:28.7,44.375,32.625,133,0.026,-0.002,1.032,0,-0.03,0,29.61,-1.46,-0.17,140.65
2021/10/13,26:29.7,44,32.375,130.375,0.026,-0.002,1.032,-0.03,-0.061,0,29.63,-1.49,-0.18,140.66
2021/10/13,26:30.7,45.875,32.75,130.625,0.027,-0.002,1.032,0,-0.091,-0.03,29.6,-1.56,-0.25,140.7
2021/10/13,26:31.7,41.75,36.5,127.125,0.025,-0.002,1.032,0,-0.03,-0.03,29.61,-1.28,0.05,140.54
2021/10/13,26:32.7,41.75,31,132.375,0.026,-0.002,1.033,0.03,-0.061,0.061,29.61,-1.36,-0.03,140.57
2021/10/13,26:33.7,45,36,130.25,0.025,-0.002,1.031,-0.03,-0.03,-0.061,29.65,-1.3,0.03,140.53
2021/10/13,26:34.7,45,33.25,130.625,0.025,-0.002,1.033,0.03,-0.061,0,29.63,-1.39,-0.07,140.57
2021/10/13,26:35.7,43.75,32.875,129,0.025,-0.002,1.033,0,-0.061,0,29.62,-1.41,-0.1,140.58
2021/10/13,26:36.7,44.875,31.875,128.125,0.026,-0.002,1.033,0.03,-0.091,0,29.61,-1.5,-0.22,140.64
2021/10/13,26:37.6,44.375,36.25,133,0.026,-0.002,1.032,0.061,0,0,29.61,-1.36,-0.04,140.55
2021/10/13,26:38.6,43.625,33.625,127.625,0.026,-0.002,1.033,0.03,-0.061,0.03,29.62,-1.37,-0.03,140.55
2021/10/13,26:39.6,42.5,30.5,128.375,0.025,-0.003,1.032,0.03,-0.03,0,29.61,-1.45,-0.15,140.6
2021/10/13,26:40.6,44.125,33.25,131.875,0.025,-0.002,1.032,0.03,-0.061,0.03,29.63,-1.43,-0.14,140.59
2021/10/13,26:41.6,45,32.625,129.875,0.025,-0.003,1.033,0,-0.03,0,29.59,-1.48,-0.21,140.63
2021/10/13,26:42.6,46.875,31.375,129.375,0.026,-0.002,1.033,0.061,-0.061,0,29.59,-1.62,-0.38,140.74
2021/10/13,26:43.6,42.25,33.125,129.875,0.026,-0.002,1.032,0.03,-0.061,-0.03,29.54,-1.48,-0.2,140.67
2021/10/13,26:44.6,45.875,34.125,131.625,0.027,-0.002,1.032,0.03,-0.091,0.03,29.56,-1.49,-0.19,140.68
2021/10/13,26:45.6,43.625,29.25,129,0.026,-0.002,1.034,-0.03,-0.091,-0.03,29.56,-1.62,-0.35,140.76
2021/10/13,26:46.6,42.5,34.125,131.25,0.025,-0.001,1.032,-0.061,-0.03,0,29.57,-1.44,-0.14,140.67
2021/10/13,26:47.6,47.375,34.5,130.875,0.026,-0.001,1.033,0.091,-0.03,0,29.6,-1.49,-0.18,140.71
2021/10/13,26:48.6,47.875,34.375,131.5,0.025,-0.003,1.032,0,-0.03,0,29.58,-1.53,-0.25,140.75
2021/10/13,26:49.6,44.875,31.625,135,0.026,0,1.033,0,-0.061,0.03,29.61,-1.58,-0.27,140.79
2021/10/13,26:50.6,44.625,32.625,134.25,0.026,-0.001,1.032,0.03,-0.03,0.03,29.58,-1.55,-0.22,140.79
2021/10/13,26:51.6,43.375,35.75,123.875,0.025,-0.001,1.033,0,-0.03,0,29.59,-1.37,-0.02,140.69
2021/10/13,26:52.5,44.625,33.5,131.875,0.025,-0.002,1.031,0,-0.03,-0.03,29.59,-1.4,-0.06,140.7
2021/10/13,26:53.5,43,30.375,132.375,0.026,-0.002,1.032,0.03,-0.061,-0.03,29.52,-1.49,-0.16,140.75
2021/10/13,26:54.5,45,35.375,131.625,0.025,-0.001,1.032,0.061,-0.03,-0.03,29.59,-1.4,-0.05,140.7
2021/10/13,26:55.5,44,35,133.625,0.026,-0.003,1.033,-0.03,-0.03,0.03,29.63,-1.34,0.01,140.65
2021/10/13,26:56.5,44,34.25,127.875,0.026,-0.001,1.034,0.03,-0.061,0,29.57,-1.34,0.02,140.64
2021/10/13,26:57.5,43.75,35.125,131.25,0.025,-0.002,1.034,0.03,-0.03,-0.091,29.6,-1.28,0.07,140.59
2021/10/13,26:58.5,42.375,37,129.75,0.025,-0.002,1.032,0,-0.091,0,29.64,-1.13,0.24,140.47
2021/10/13,26:59.5,44.75,33,130.75,0.026,-0.002,1.033,-0.03,-0.03,0.03,29.62,-1.29,0.05,140.54
2021/10/13,27:00.5,43.875,32.875,129.625,0.025,-0.002,1.034,0.03,-0.061,0,29.65,-1.35,-0.03,140.56
2021/10/13,27:01.5,45.25,31.75,131.375,0.025,-0.002,1.032,0,-0.091,0.03,29.63,-1.48,-0.19,140.64
2021/10/13,27:02.5,44.5,29.875,130.25,0.025,-0.003,1.032,0.03,-0.091,0,29.64,-1.61,-0.35,140.73
2021/10/13,27:03.5,42.875,31.625,128,0.025,-0.002,1.033,0.061,0,0,29.66,-1.55,-0.28,140.72
2021/10/13,27:04.5,50.125,32.25,132.625,0.026,-0.002,1.032,0,0,0,29.7,-1.71,-0.49,140.86
2021/10/13,27:05.5,46,27.625,131.5,0.026,-0.002,1.032,0.03,-0.061,0.03,29.67,-1.87,-0.69,141
2021/10/13,27:06.5,44.25,35,124.75,0.024,-0.003,1.032,0,-0.061,0,29.65,-1.59,-0.38,140.88
2021/10/13,27:07.5,47.375,38.25,129.125,0.025,-0.002,1.032,-0.03,-0.091,-0.03,29.65,-1.41,-0.16,140.78
2021/10/13,27:08.5,44.25,33,131.125,0.024,-0.002,1.032,0.061,0,0,29.64,-1.4,-0.16,140.78
2021/10/13,27:09.5,42.5,36.375,128.25,0.025,-0.002,1.032,0,-0.03,0,29.68,-1.2,0.07,140.66
2021/10/13,27:10.5,45.375,33,122.75,0.025,-0.004,1.031,-0.03,-0.03,0,29.66,-1.33,-0.1,140.72
2021/10/13,27:11.5,43.75,35.125,129.625,0.026,-0.003,1.032,-0.03,-0.061,0.03,29.68,-1.27,-0.02,140.67
2021/10/13,27:12.5,42.125,35.375,130.5,0.025,-0.003,1.034,-0.03,-0.091,-0.03,29.66,-1.17,0.11,140.58
2021/10/13,27:13.5,42.875,30.125,124.375,0.025,-0.002,1.032,0,-0.03,-0.03,29.63,-1.35,-0.11,140.67
2021/10/13,27:14.5,46.125,35.375,128.625,0.025,-0.002,1.031,0.03,-0.03,0.03,29.55,-1.35,-0.1,140.67
2021/10/13,27:15.5,44.75,35.875,125,0.026,-0.002,1.031,0.03,-0.03,-0.061,29.53,-1.29,-0.01,140.61
2021/10/13,27:16.5,43.5,33.875,131.375,0.025,-0.003,1.032,-0.03,-0.061,0.03,29.56,-1.3,-0.02,140.6
2021/10/13,27:17.5,42.75,33,130.75,0.026,-0.003,1.03,-0.03,-0.061,0,29.53,-1.31,-0.04,140.59
2021/10/13,27:18.5,46.125,30.25,128.125,0.025,-0.004,1.031,0.03,-0.091,0,29.57,-1.54,-0.34,140.73
2021/10/13,27:19.4,45.875,33.625,130.25,0.025,-0.002,1.031,0,-0.061,-0.061,29.54,-1.52,-0.31,140.73
2021/10/13,27:20.4,41.625,35.5,131.875,0.025,-0.002,1.032,0,-0.061,-0.03,29.5,-1.29,-0.02,140.6
2021/10/13,27:21.4,43.625,33.875,128.25,0.026,-0.002,1.032,-0.03,-0.091,-0.03,29.54,-1.3,-0.02,140.59
2021/10/13,27:22.4,41.5,37.375,126.25,0.025,-0.002,1.032,0.03,-0.061,-0.03,29.55,-1.08,0.23,140.43
2021/10/13,27:23.4,42.75,33.5,133.125,0.025,-0.003,1.031,-0.03,-0.061,-0.091,29.53,-1.17,0.13,140.43
2021/10/13,27:24.4,44.875,38.125,128.875,0.026,-0.003,1.031,0,-0.091,0.03,29.53,-1.11,0.2,140.35
2021/10/13,27:25.4,45,31.25,133.75,0.026,-0.002,1.033,0.03,-0.061,0,29.56,-1.35,-0.09,140.46
2021/10/13,27:26.4,43.125,34.25,126.75,0.025,-0.002,1.031,0,-0.091,0,29.55,-1.31,-0.03,140.43
2021/10/13,27:27.4,43.875,34.375,131,0.025,-0.003,1.034,0,-0.03,-0.03,29.58,-1.3,-0.03,140.41
2021/10/13,27:28.4,40.875,29,131.875,0.025,-0.003,1.032,0.03,-0.061,-0.03,29.57,-1.42,-0.17,140.46
2021/10/13,27:29.4,46.375,33.625,130.125,0.026,-0.003,1.033,0.061,-0.03,0,29.62,-1.48,-0.24,140.51
2021/10/13,27:30.4,43.875,35.625,129,0.026,-0.002,1.031,-0.03,-0.091,0,29.6,-1.36,-0.08,140.43
2021/10/13,27:31.4,45.5,34.875,126.625,0.024,-0.003,1.031,-0.03,-0.091,0,29.62,-1.37,-0.1,140.43
2021/10/13,27:32.4,42,33.5,130.125,0.026,-0.002,1.031,0.061,-0.061,0,29.63,-1.32,-0.02,140.39
2021/10/13,27:33.3,44.25,33.375,129.25,0.024,-0.003,1.032,0.061,-0.061,0,29.59,-1.36,-0.09,140.41
2021/10/13,27:34.4,49.125,36.625,126.375,0.024,-0.002,1.032,0,-0.061,0,29.58,-1.41,-0.16,140.45
2021/10/13,27:35.4,43.5,35.375,125.5,0.025,-0.002,1.034,-0.03,-0.03,0,29.62,-1.31,-0.03,140.38
2021/10/13,27:36.4,42,30.75,129.25,0.025,-0.003,1.034,0.03,-0.03,0,29.62,-1.39,-0.13,140.42
2021/10/13,27:37.4,41.5,30.75,128.5,0.026,-0.003,1.032,-0.03,-0.061,0.061,29.62,-1.43,-0.17,140.44
2021/10/13,27:38.4,42.875,35.375,124.25,0.026,-0.001,1.032,0.03,-0.03,0.03,29.65,-1.31,-0.01,140.36
2021/10/13,27:39.4,47.625,33.25,127,0.026,-0.003,1.031,-0.03,-0.091,-0.03,29.64,-1.49,-0.24,140.47
2021/10/13,27:40.4,46.5,32.5,131.5,0.025,-0.003,1.032,0,-0.061,0,29.62,-1.56,-0.34,140.54
2021/10/13,27:41.4,44.5,37,133,0.025,-0.003,1.033,-0.03,-0.061,-0.03,29.68,-1.36,-0.11,140.42
2021/10/13,27:42.4,45.875,31.875,127.875,0.025,-0.002,1.034,0,-0.061,0,29.69,-1.49,-0.27,140.52
2021/10/13,27:43.3,44.75,33.375,124.875,0.025,-0.003,1.032,0,-0.03,0,29.7,-1.49,-0.26,140.52
2021/10/13,27:44.3,44.375,32.5,131.25,0.025,-0.002,1.033,0,-0.03,0.03,29.73,-1.49,-0.26,140.54
2021/10/13,27:45.3,41.875,33.375,129.375,0.025,-0.003,1.032,-0.03,-0.03,-0.03,29.7,-1.38,-0.13,140.48
2021/10/13,27:46.3,45.125,31.25,129.875,0.025,-0.003,1.032,0.03,-0.091,0.03,29.74,-1.5,-0.29,140.56
2021/10/13,27:47.3,43.375,31.875,129,0.025,-0.003,1.032,0.03,-0.091,0.03,29.74,-1.5,-0.28,140.57
2021/10/13,27:48.3,44,31.5,129.375,0.024,-0.002,1.033,0.03,-0.061,-0.03,29.73,-1.52,-0.31,140.6
2021/10/13,27:49.3,43.75,31.375,131.75,0.025,-0.002,1.033,0.061,-0.061,0,29.73,-1.53,-0.31,140.63
2021/10/13,27:50.3,47.875,32.25,130.75,0.025,-0.003,1.032,0.061,-0.03,0.03,29.74,-1.64,-0.45,140.72
2021/10/13,27:51.3,47.125,32.125,126.75,0.025,-0.003,1.032,0.03,-0.091,0.03,29.7,-1.68,-0.51,140.79
2021/10/13,27:52.4,46.875,32.75,131.125,0.025,-0.003,1.031,0.03,-0.091,-0.03,29.73,-1.67,-0.49,140.82
2021/10/13,27:53.3,44.75,32.625,127.625,0.025,-0.002,1.031,0,-0.03,0.03,29.66,-1.6,-0.4,140.82
2021/10/13,27:54.3,45,33.75,128.75,0.024,-0.003,1.032,0.03,-0.061,0,29.66,-1.51,-0.3,140.79
2021/10/13,27:55.3,46.25,30.875,129.625,0.025,-0.003,1.031,0,0,-0.03,29.7,-1.62,-0.44,140.88
2021/10/13,27:56.3,43.5,33,130.875,0.025,-0.002,1.032,0,-0.061,0,29.7,-1.51,-0.29,140.83
2021/10/13,27:57.3,44.75,31.125,129.125,0.024,-0.003,1.033,0,-0.091,-0.03,29.73,-1.56,-0.36,140.88
2021/10/13,27:58.3,42.25,34.75,132.125,0.025,-0.002,1.031,0,-0.061,-0.061,29.69,-1.35,-0.11,140.77
2021/10/13,27:59.3,45.75,31.875,131.5,0.026,-0.001,1.031,0.03,-0.03,-0.03,29.68,-1.47,-0.23,140.84
2021/10/13,28:00.3,43.125,34.5,127.625,0.026,-0.003,1.031,0,-0.091,0,29.67,-1.36,-0.09,140.77
2021/10/13,28:01.3,44.625,35.375,126.125,0.025,-0.003,1.032,0.03,-0.03,-0.03,29.67,-1.3,-0.03,140.72
2021/10/13,28:02.3,45.25,35.875,130.375,0.025,-0.002,1.032,0.061,-0.03,-0.03,29.63,-1.26,0.02,140.69
2021/10/13,28:03.3,42,32.5,133.75,0.026,-0.003,1.032,0,-0.061,-0.03,29.65,-1.28,0,140.67
2021/10/13,28:04.3,44,34,132.5,0.025,-0.004,1.03,0,-0.061,-0.03,29.61,-1.29,-0.02,140.66
2021/10/13,28:05.3,44.875,34.25,128.125,0.024,-0.003,1.03,-0.061,-0.03,-0.03,29.64,-1.31,-0.07,140.67
2021/10/13,28:06.3,42.5,27.125,120.5,0.026,-0.003,1.031,0.03,-0.061,0,29.62,-1.55,-0.37,140.82
2021/10/13,28:07.3,46.25,32.5,133.375,0.025,-0.003,1.032,-0.03,0,0.03,29.64,-1.57,-0.39,140.86
2021/10/13,28:08.3,44,32.75,130.5,0.025,-0.004,1.03,0,-0.061,0,29.56,-1.51,-0.31,140.84
2021/10/13,28:09.3,46.875,34.625,128.75,0.026,-0.003,1.03,0.03,-0.091,0.03,29.53,-1.5,-0.28,140.84
2021/10/13,28:10.3,44.625,33.5,125,0.025,-0.003,1.03,0.03,-0.061,0,29.51,-1.46,-0.23,140.83
2021/10/13,28:11.3,46,32.125,128.5,0.026,-0.003,1.03,0,-0.03,0,29.54,-1.54,-0.32,140.89
2021/10/13,28:12.3,44,33.5,132.125,0.025,-0.002,1.03,0.03,-0.061,-0.061,29.52,-1.46,-0.21,140.85
2021/10/13,28:13.3,47.75,31.75,130.25,0.025,-0.003,1.031,0,-0.061,-0.061,29.51,-1.6,-0.4,140.95
2021/10/13,28:14.3,45.125,32.625,129.875,0.025,-0.003,1.031,0,-0.091,0.03,29.5,-1.57,-0.36,140.96
2021/10/13,28:15.3,43.625,36.875,130.125,0.026,-0.002,1.031,0,-0.03,0,29.51,-1.32,-0.06,140.81
2021/10/13,28:16.3,44.25,35,126.5,0.025,-0.003,1.032,0.03,-0.03,-0.03,29.51,-1.27,-0.01,140.77
2021/10/13,28:17.3,42.5,33.875,133,0.026,-0.003,1.032,0.03,-0.061,0,29.48,-1.24,0.04,140.73
2021/10/13,28:18.3,44.875,33.125,127,0.025,-0.002,1.033,0.03,-0.061,0,29.52,-1.34,-0.06,140.77
2021/10/13,28:19.3,44.25,30.75,126.875,0.025,-0.003,1.032,0.061,-0.03,0,29.54,-1.47,-0.23,140.85
2021/10/13,28:20.3,46.125,32.375,130.375,0.025,-0.002,1.032,0,0,-0.061,29.56,-1.52,-0.3,140.9
2021/10/13,28:21.2,46.375,32,130.625,0.025,-0.003,1.031,0,-0.061,-0.03,29.54,-1.58,-0.38,140.95
2021/10/13,28:22.3,45.25,36.625,133.625,0.026,-0.004,1.031,0.03,-0.03,0,29.49,-1.39,-0.17,140.85
2021/10/13,28:23.2,49.75,31.75,129.625,0.025,-0.003,1.032,-0.03,-0.091,0,29.63,-1.61,-0.47,141.02
2021/10/13,28:24.2,45,32,131.375,0.025,-0.003,1.032,0.03,-0.03,0.03,29.59,-1.57,-0.41,141.03
2021/10/13,28:25.2,42.375,30.75,127.25,0.026,-0.003,1.032,0.061,-0.03,-0.03,29.63,-1.53,-0.35,141.02
2021/10/13,28:26.2,45.75,32.625,128.25,0.025,-0.004,1.032,0.03,-0.061,0,29.64,-1.53,-0.36,141.04
2021/10/13,28:27.2,46.125,37,127.75,0.025,-0.002,1.032,-0.03,-0.03,0,29.65,-1.37,-0.15,140.95
2021/10/13,28:28.3,45.375,30.5,129.625,0.025,-0.003,1.033,0.03,0,0.03,29.63,-1.5,-0.33,141.04
2021/10/13,28:29.3,43.5,28.375,133.25,0.026,-0.002,1.032,0,-0.061,-0.03,29.65,-1.61,-0.45,141.12
2021/10/13,28:30.3,45.125,33.5,128.25,0.025,-0.002,1.032,0,-0.061,0,29.69,-1.53,-0.33,141.09
2021/10/13,28:31.2,44,31,129.375,0.025,-0.002,1.032,0,-0.03,0.03,29.65,-1.54,-0.33,141.11
2021/10/13,28:32.2,40.625,35.5,130.375,0.026,-0.002,1.031,0.03,-0.03,0,29.62,-1.25,0.02,140.95
2021/10/13,28:33.2,46.75,33.75,131.625,0.025,-0.002,1.032,0,-0.061,0.03,29.64,-1.36,-0.1,141
2021/10/13,28:34.2,41.5,29.625,132.875,0.025,-0.003,1.032,0,0,0,29.65,-1.42,-0.17,141.03
2021/10/13,28:35.2,42.5,32.875,126,0.024,-0.003,1.032,0.091,-0.061,0.03,29.66,-1.35,-0.1,140.99
2021/10/13,28:36.2,43.625,35,128,0.025,-0.004,1.032,0,-0.061,0.03,29.68,-1.26,-0.01,140.93
2021/10/13,28:37.2,42.625,31.375,131.75,0.026,-0.003,1.033,0,-0.03,0.03,29.67,-1.33,-0.09,140.95
2021/10/13,28:38.2,44.375,31.5,131,0.025,-0.003,1.032,0.061,0,-0.03,29.7,-1.42,-0.2,141
2021/10/13,28:39.3,46.875,36.25,130.75,0.025,-0.004,1.032,0.03,-0.03,-0.061,29.72,-1.36,-0.13,140.96
2021/10/13,28:40.3,44.75,35.75,130,0.025,-0.005,1.033,0,-0.061,0,29.73,-1.28,-0.05,140.9
2021/10/13,28:41.2,42.375,32.5,129.875,0.025,-0.003,1.033,0.03,-0.061,0,29.71,-1.29,-0.05,140.88
2021/10/13,28:42.3,45.25,26.875,130.75,0.025,-0.002,1.033,-0.03,-0.122,-0.03,29.72,-1.6,-0.45,141.08
2021/10/13,28:43.3,42.875,31.125,130.125,0.026,-0.002,1.033,-0.03,-0.091,-0.03,29.7,-1.55,-0.36,141.06
2021/10/13,28:44.2,41.25,33.125,125.25,0.026,-0.003,1.034,-0.03,-0.091,-0.03,29.72,-1.38,-0.15,140.97
2021/10/13,28:45.2,49.25,34.625,129.125,0.025,-0.003,1.033,-0.03,-0.03,-0.061,29.73,-1.47,-0.28,141.03
2021/10/13,28:46.2,44.625,31.875,130.375,0.025,-0.002,1.031,-0.03,-0.061,0.03,29.72,-1.5,-0.29,141.06
2021/10/13,28:47.2,42.625,35,128.375,0.024,-0.003,1.031,0,-0.061,0,29.73,-1.31,-0.07,140.95
2021/10/13,28:48.2,45,31.625,124.5,0.025,-0.004,1.031,-0.03,-0.03,-0.03,29.78,-1.42,-0.23,141.02
2021/10/13,28:49.2,40.75,32.375,129.375,0.026,-0.003,1.033,0,-0.061,0,29.74,-1.33,-0.09,140.95
2021/10/13,28:50.2,42.625,34.375,133.625,0.026,-0.001,1.031,0,-0.061,0,29.75,-1.25,0.04,140.89
2021/10/13,28:51.2,42.625,32.5,133.625,0.026,-0.002,1.032,-0.03,-0.03,0,29.8,-1.29,0.02,140.89
2021/10/13,28:52.2,41.875,34.5,126.125,0.026,-0.003,1.033,0.03,-0.061,0,29.78,-1.21,0.11,140.81
2021/10/13,28:53.2,44.25,31,130.875,0.025,-0.002,1.032,0.061,-0.061,-0.03,29.76,-1.37,-0.09,140.89
2021/10/13,28:54.2,43.75,35,127.75,0.025,-0.002,1.032,0.03,-0.061,0,29.77,-1.29,0.01,140.83
2021/10/13,28:55.2,44.5,33.25,129.25,0.025,-0.003,1.034,0,-0.03,0.03,29.81,-1.34,-0.06,140.85
2021/10/13,28:56.2,42.375,33.125,125.75,0.025,-0.003,1.032,0,-0.03,0,29.76,-1.3,-0.02,140.82
2021/10/13,28:57.2,44.625,32.125,130.75,0.026,-0.002,1.032,0,-0.061,-0.061,29.77,-1.41,-0.13,140.87
2021/10/13,28:58.2,43,34.5,128.5,0.026,-0.002,1.031,0,-0.061,0.03,29.74,-1.32,-0.01,140.8
2021/10/13,28:59.2,45.75,35.875,127.875,0.025,-0.003,1.031,-0.061,-0.03,0,29.74,-1.3,0.01,140.78
2021/10/13,29:00.2,44.875,35.125,126.75,0.026,-0.002,1.03,0.03,-0.061,-0.03,29.7,-1.3,0.02,140.75
2021/10/13,29:01.2,41.875,33.5,131.125,0.026,-0.002,1.031,0,-0.061,-0.061,29.7,-1.26,0.08,140.71
2021/10/13,29:02.2,46,33.5,130.875,0.025,-0.002,1.032,-0.03,-0.03,-0.061,29.65,-1.36,-0.06,140.76
2021/10/13,29:03.2,47.125,37.5,131.875,0.026,-0.002,1.032,0,-0.061,-0.03,29.69,-1.32,0.01,140.71
2021/10/13,29:04.2,41.875,32.125,126.75,0.025,-0.003,1.032,0,-0.061,-0.03,29.68,-1.33,-0.02,140.7
2021/10/13,29:05.2,42.125,32.75,127.625,0.026,-0.002,1.033,0.03,-0.061,-0.061,29.69,-1.33,0,140.68
2021/10/13,29:06.1,41.25,31.5,133.25,0.025,-0.001,1.032,0.03,-0.03,0,29.68,-1.34,0,140.68
2021/10/13,29:07.1,46.125,31.75,134.5,0.026,-0.003,1.031,-0.03,-0.091,-0.03,29.66,-1.49,-0.2,140.76
2021/10/13,29:08.1,42.375,34.125,124.625,0.025,-0.002,1.031,0.061,-0.03,0,29.63,-1.36,-0.04,140.69
2021/10/13,29:09.1,44,34.5,128,0.026,-0.002,1.031,0.03,-0.061,-0.03,29.63,-1.34,0,140.66
2021/10/13,29:10.2,45.25,33.5,131,0.026,-0.003,1.032,0.03,-0.091,0,29.61,-1.41,-0.09,140.69
2021/10/13,29:11.2,45.5,30,131.125,0.026,-0.001,1.032,0.03,-0.091,-0.03,29.65,-1.59,-0.31,140.8
2021/10/13,29:12.2,42.875,34.5,124.875,0.025,-0.002,1.031,0.03,-0.061,-0.03,29.62,-1.42,-0.11,140.71
2021/10/13,29:13.2,43.75,31.125,131.75,0.026,-0.002,1.032,-0.03,-0.061,0,29.62,-1.5,-0.2,140.76
2021/10/13,29:14.2,44.5,34,129.625,0.026,-0.003,1.031,0,-0.03,0.03,29.6,-1.46,-0.15,140.74
2021/10/13,29:15.2,41.5,32.375,128.25,0.026,-0.002,1.031,0.03,-0.091,0,29.62,-1.4,-0.07,140.7
2021/10/13,29:16.2,45.625,32.875,129.75,0.026,-0.001,1.031,0,-0.03,-0.03,29.57,-1.48,-0.15,140.74
2021/10/13,29:17.2,42.5,35,128.375,0.025,-0.002,1.031,0,-0.03,-0.03,29.6,-1.32,0.02,140.65
2021/10/13,29:18.2,41.375,35,131.375,0.026,-0.002,1.034,-0.03,-0.091,-0.03,29.57,-1.21,0.15,140.56
2021/10/13,29:19.2,47.625,32,129.875,0.026,-0.003,1.033,0.061,-0.061,-0.03,29.6,-1.46,-0.17,140.71
2021/10/13,29:20.2,46.625,35,127.75,0.026,-0.003,1.033,0,-0.061,-0.03,29.63,-1.46,-0.18,140.71
2021/10/13,29:21.2,46.875,30,128.125,0.026,-0.001,1.032,-0.03,-0.061,-0.03,29.58,-1.65,-0.43,140.85
2021/10/13,29:22.2,41.5,34,131.25,0.025,-0.001,1.032,0,0,-0.03,29.55,-1.42,-0.14,140.74
2021/10/13,29:23.2,45.75,36.75,135.125,0.024,-0.002,1.032,0,-0.061,-0.03,29.64,-1.32,-0.03,140.67
2021/10/13,29:24.2,42.75,34,131.875,0.026,-0.002,1.032,0.03,-0.091,-0.03,29.62,-1.29,0.03,140.63
2021/10/13,29:25.2,43.375,34,130.875,0.025,-0.003,1.033,-0.03,-0.091,0,29.67,-1.29,0.03,140.61
2021/10/13,29:26.2,45.25,31.625,127.375,0.026,-0.003,1.033,0,-0.03,0,29.68,-1.45,-0.18,140.7
2021/10/13,29:27.2,43,33.625,131.625,0.026,-0.001,1.033,0.03,-0.091,-0.03,29.68,-1.39,-0.08,140.66
2021/10/13,29:28.2,43.125,30.125,129.625,0.026,-0.002,1.035,0.03,-0.061,-0.03,29.72,-1.49,-0.21,140.72
2021/10/13,29:29.2,42.875,32.625,128.25,0.025,-0.003,1.033,0.061,-0.03,0,29.73,-1.45,-0.16,140.7
2021/10/13,29:30.1,41.25,32.25,131.25,0.025,-0.002,1.033,-0.03,-0.091,0,29.68,-1.38,-0.08,140.66
2021/10/13,29:31.1,41.625,32.5,128.875,0.025,-0.001,1.032,0,-0.061,0.03,29.74,-1.33,-0.02,140.64
2021/10/13,29:32.1,40.125,34.375,131.125,0.026,-0.002,1.033,-0.061,-0.091,-0.03,29.7,-1.19,0.14,140.53
2021/10/13,29:33.1,44.25,32.375,127.25,0.026,-0.002,1.033,-0.03,-0.061,0,29.71,-1.33,-0.03,140.6
2021/10/13,29:34.1,39,35.75,129.125,0.025,-0.002,1.031,0,-0.061,0,29.72,-1.08,0.25,140.43
2021/10/13,29:35.1,42,33.25,132.875,0.026,-0.002,1.033,0.03,0,-0.03,29.73,-1.15,0.18,140.43
2021/10/13,29:36.1,42.25,35.25,129,0.025,-0.003,1.032,0.03,-0.061,0.03,29.76,-1.13,0.21,140.38
2021/10/13,29:37.1,41.875,34.625,130.875,0.025,-0.001,1.032,0,-0.061,-0.061,29.75,-1.12,0.22,140.34
2021/10/13,29:38.1,44,34,126,0.024,-0.001,1.032,0.03,-0.091,0,29.75,-1.21,0.12,140.36
2021/10/13,29:39.1,45.125,34,127.25,0.026,-0.002,1.031,0,0,-0.03,29.78,-1.32,-0.01,140.4
2021/10/13,29:40.1,45.875,35.375,129.75,0.026,-0.002,1.033,0.03,-0.061,0,29.78,-1.36,-0.03,140.41
2021/10/13,29:41.1,43.5,33.875,127.5,0.025,-0.002,1.033,0,0,-0.061,29.78,-1.35,-0.02,140.39
2021/10/13,29:42.1,40.875,33.75,129.625,0.026,-0.002,1.032,-0.03,-0.03,0,29.79,-1.26,0.07,140.33
2021/10/13,29:43.1,43.5,37.75,131.875,0.025,-0.003,1.03,0.03,-0.03,0,29.79,-1.14,0.21,140.22
2021/10/13,29:44.1,46.125,35.375,131.875,0.026,-0.002,1.032,0,-0.03,0,29.78,-1.25,0.07,140.26
2021/10/13,29:45.1,44.625,34.375,129,0.025,-0.002,1.032,0,-0.03,-0.03,29.79,-1.31,0.01,140.28
2021/10/13,29:46.1,44.75,34.875,129.625,0.025,-0.002,1.032,0,-0.03,0,29.8,-1.32,-0.01,140.27
2021/10/13,29:47.1,44.5,35.25,129.875,0.026,-0.002,1.033,0.03,-0.091,0.03,29.82,-1.32,0.01,140.25
2021/10/13,29:48.1,44.5,33.5,127,0.025,-0.003,1.032,0.061,-0.03,0.061,29.85,-1.38,-0.08,140.29
2021/10/13,29:49.1,43,32.125,128.375,0.026,-0.002,1.034,0.03,-0.091,-0.061,29.83,-1.43,-0.13,140.31
2021/10/13,29:50.1,42.875,30.375,130.75,0.025,-0.003,1.031,0.03,-0.061,0,29.85,-1.52,-0.24,140.36
2021/10/13,29:51.1,41.125,34.625,127.5,0.026,-0.003,1.033,-0.03,-0.03,0,29.87,-1.33,-0.04,140.26
2021/10/13,29:52.1,43,32.75,134.625,0.026,-0.002,1.032,0.061,-0.061,0.03,29.86,-1.36,-0.07,140.27
2021/10/13,29:53.1,46.125,33.625,131.25,0.024,-0.002,1.032,-0.03,0,0.03,29.86,-1.44,-0.17,140.32
2021/10/13,29:54.1,44.5,33,129.625,0.026,-0.002,1.033,-0.061,0,-0.03,29.84,-1.47,-0.2,140.34
2021/10/13,29:55.0,45.25,31.375,131.5,0.026,-0.002,1.033,0,-0.061,-0.03,29.86,-1.57,-0.32,140.42
2021/10/13,29:56.0,43.375,33.375,134.25,0.026,-0.002,1.033,0,0,0,29.89,-1.49,-0.22,140.38
2021/10/13,29:57.0,44.625,34.5,131.75,0.026,-0.002,1.033,0.03,-0.03,-0.03,29.88,-1.44,-0.14,140.36
2021/10/13,29:58.0,43.625,31.875,131.875,0.026,-0.003,1.032,0,-0.03,-0.03,29.89,-1.49,-0.2,140.39
2021/10/13,29:59.0,40.5,32.75,129,0.026,-0.002,1.033,0,-0.091,0,29.89,-1.38,-0.06,140.32
2021/10/13,30:00.0,43,34.375,129.375,0.025,-0.003,1.033,0,-0.091,-0.03,29.89,-1.33,-0.01,140.28
2021/10/13,30:01.0,45.5,31.125,129.375,0.026,-0.002,1.032,0.03,-0.03,0,29.88,-1.52,-0.23,140.4
2021/10/13,30:02.0,43.5,35.375,133.75,0.025,-0.001,1.032,0,-0.061,0.03,29.88,-1.37,-0.07,140.32
2021/10/13,30:03.0,42.75,35.375,132,0.025,-0.003,1.033,0.03,-0.091,-0.03,29.91,-1.28,0.04,140.25
2021/10/13,30:04.0,43.5,32.5,130,0.025,-0.003,1.032,0,-0.091,0,29.89,-1.36,-0.07,140.29
2021/10/13,30:05.0,43.625,32.75,130.75,0.025,-0.002,1.032,-0.091,-0.091,0,29.89,-1.4,-0.12,140.31
2021/10/13,30:06.0,44.125,29,133.875,0.026,-0.002,1.031,0,-0.061,-0.03,29.86,-1.59,-0.34,140.42
2021/10/13,30:07.0,47.625,29.625,130.75,0.024,-0.002,1.032,0.061,-0.03,0.03,29.89,-1.76,-0.59,140.58
2021/10/13,30:08.0,46.625,33.25,129.125,0.025,-0.001,1.032,0.03,-0.061,-0.03,29.86,-1.7,-0.5,140.59
2021/10/13,30:09.0,44.5,32.75,130.875,0.026,-0.002,1.031,0.03,-0.061,-0.03,29.86,-1.63,-0.39,140.57
2021/10/13,30:10.0,41,30.25,131.5,0.025,-0.001,1.033,0,-0.061,-0.03,29.89,-1.56,-0.29,140.56
2021/10/13,30:11.0,44.875,37.5,130.75,0.024,-0.002,1.032,-0.03,-0.091,0,29.89,-1.35,-0.06,140.44
2021/10/13,30:12.0,43,32.875,130.375,0.026,-0.002,1.032,0,-0.091,0.03,29.85,-1.37,-0.07,140.44
2021/10/13,30:13.0,41.5,34.875,132.75,0.026,-0.003,1.031,0.03,-0.091,0,29.85,-1.25,0.07,140.36
2021/10/13,30:14.0,41.625,36.125,131.25,0.025,-0.001,1.032,0.061,-0.061,-0.03,29.89,-1.13,0.23,140.26
2021/10/13,30:15.0,45.25,36,128.125,0.025,-0.003,1.032,0.03,-0.061,-0.03,29.84,-1.19,0.14,140.26
2021/10/13,30:16.0,41.875,34.625,127.5,0.026,-0.003,1.031,0.03,-0.091,-0.03,29.85,-1.17,0.16,140.21
2021/10/13,30:17.0,45.5,29.625,129.625,0.025,-0.002,1.031,0.091,-0.061,0.03,29.82,-1.47,-0.23,140.38
2021/10/13,30:18.0,48.375,34.75,131.375,0.025,-0.003,1.031,-0.03,-0.03,0,29.81,-1.53,-0.3,140.44
2021/10/13,30:19.0,42.5,34.5,133.25,0.025,-0.002,1.032,0.03,-0.03,-0.061,29.78,-1.38,-0.12,140.36
2021/10/13,30:20.0,44.875,30.5,130.875,0.025,-0.003,1.032,0,-0.061,-0.03,29.81,-1.53,-0.32,140.46
2021/10/13,30:21.0,44.75,34.75,127.875,0.025,-0.002,1.031,0.03,-0.091,0,29.79,-1.45,-0.21,140.42
2021/10/13,30:22.0,43.75,31.125,133.5,0.025,-0.002,1.03,0,-0.03,-0.03,29.76,-1.5,-0.27,140.46
2021/10/13,30:23.0,42,35.125,134.125,0.025,-0.002,1.031,0,-0.061,0,29.71,-1.32,-0.05,140.36
2021/10/13,30:24.0,44.5,32.125,131.875,0.025,-0.003,1.031,0,-0.061,0,29.68,-1.43,-0.18,140.41
2021/10/13,30:25.0,45.75,34.625,133,0.026,-0.002,1.03,0.061,-0.03,0.03,29.7,-1.43,-0.17,140.42
2021/10/13,30:26.0,42.625,33.25,132.875,0.025,-0.002,1.031,0.03,-0.061,-0.03,29.74,-1.37,-0.1,140.39
2021/10/13,30:27.0,43.75,32.25,128.25,0.024,-0.002,1.032,-0.03,-0.061,0,29.72,-1.42,-0.17,140.42
2021/10/13,30:27.9,48,30.375,128.5,0.025,-0.002,1.032,0,-0.061,0,29.74,-1.66,-0.47,140.59
2021/10/13,30:28.9,46,34.125,132,0.026,-0.003,1.033,0,-0.061,-0.061,29.73,-1.59,-0.38,140.57
2021/10/13,30:29.9,42.5,32.625,125.375,0.026,-0.001,1.035,0,-0.061,0,29.74,-1.5,-0.25,140.53
2021/10/13,30:30.9,48.25,32.5,132.375,0.025,-0.003,1.034,0.03,0,-0.03,29.79,-1.62,-0.41,140.63
2021/10/13,30:31.9,45.875,33.25,129.125,0.025,-0.002,1.033,-0.03,-0.03,0.03,29.81,-1.59,-0.36,140.65
2021/10/13,30:33.0,44.875,31.625,129.5,0.026,-0.001,1.032,0.061,0,0,29.82,-1.61,-0.37,140.68
2021/10/13,30:33.9,42.5,37.5,129.5,0.025,-0.002,1.032,-0.03,0,0,29.8,-1.28,-0.01,140.5
2021/10/13,30:34.9,40.75,34.25,133,0.024,-0.003,1.033,-0.03,-0.122,-0.03,29.8,-1.17,0.1,140.43
2021/10/13,30:35.9,43.875,35.375,129.5,0.026,-0.001,1.033,0,-0.061,0,29.82,-1.19,0.11,140.4
2021/10/13,30:36.9,41.75,32,128.125,0.025,-0.003,1.032,0.03,-0.091,0.03,29.81,-1.26,0.02,140.42
2021/10/13,30:37.9,42.875,37.125,130.75,0.024,-0.002,1.033,0,-0.061,0,29.8,-1.12,0.18,140.31
2021/10/13,30:38.9,41.125,36.5,127,0.025,-0.001,1.032,0,-0.061,-0.03,29.83,-1.02,0.32,140.2
2021/10/13,30:39.9,42.5,30.375,130.875,0.026,-0.002,1.032,0.03,-0.061,0,29.8,-1.26,0.03,140.3
2021/10/13,30:40.9,45.125,35.875,130.25,0.025,-0.002,1.031,0,-0.122,-0.03,29.82,-1.27,0.03,140.28
2021/10/13,30:41.9,42.75,34.25,128.125,0.025,-0.002,1.033,-0.03,-0.03,-0.03,29.8,-1.26,0.05,140.25
2021/10/13,30:42.9,42.375,34.5,125.5,0.025,-0.002,1.032,0.03,-0.061,0,29.79,-1.23,0.08,140.21
2021/10/13,30:43.9,43.875,32.5,132.5,0.025,-0.001,1.032,0,-0.091,-0.061,29.79,-1.34,-0.04,140.26
2021/10/13,30:44.9,43.5,30.75,131,0.026,-0.001,1.032,0,-0.03,-0.061,29.8,-1.47,-0.19,140.32
2021/10/13,30:45.9,42.125,32.5,130,0.025,-0.002,1.032,0.03,-0.061,-0.061,29.8,-1.43,-0.13,140.3
2021/10/13,30:46.9,42.75,35.75,132.625,0.026,-0.002,1.031,0.03,-0.091,-0.03,29.79,-1.3,0.03,140.21
2021/10/13,30:47.9,45.875,33.125,128.75,0.026,0,1.032,-0.03,-0.061,0.061,29.74,-1.44,-0.11,140.29
2021/10/13,30:48.9,46.875,34.625,129.25,0.025,-0.002,1.032,-0.03,-0.03,0,29.76,-1.49,-0.17,140.33
2021/10/13,30:49.9,44.875,35,128.125,0.026,-0.002,1.031,0.03,-0.061,-0.03,29.73,-1.45,-0.11,140.3
2021/10/13,30:50.9,46.25,33.875,127.125,0.025,-0.002,1.031,0.03,-0.091,-0.03,29.72,-1.51,-0.19,140.35
2021/10/13,30:51.9,44,34.75,128.375,0.025,-0.001,1.032,0,-0.091,0,29.68,-1.43,-0.09,140.3
2021/10/13,30:52.9,47,32.5,132.625,0.026,-0.001,1.031,0,-0.152,-0.03,29.7,-1.58,-0.26,140.4
2021/10/13,30:53.9,43.75,29.875,130.375,0.025,-0.002,1.032,0.061,-0.091,0,29.7,-1.65,-0.36,140.47
2021/10/13,30:54.9,45.5,33.125,128.5,0.025,-0.001,1.031,0.03,-0.061,-0.03,29.66,-1.62,-0.33,140.48
2021/10/13,30:55.9,46.125,33.625,127,0.026,-0.002,1.034,0.061,-0.03,0.03,29.7,-1.61,-0.31,140.5
2021/10/13,30:56.9,44.25,34.5,131.625,0.025,-0.002,1.031,0.03,-0.061,0,29.72,-1.5,-0.18,140.45
2021/10/13,30:57.9,43,31.375,130.125,0.026,-0.003,1.032,0.061,-0.091,-0.061,29.71,-1.52,-0.22,140.47
2021/10/13,30:58.9,45.125,32.375,129.125,0.025,-0.001,1.032,0,-0.061,0,29.78,-1.56,-0.26,140.51
2021/10/13,30:59.9,44.125,31.5,131.5,0.026,-0.001,1.033,0.061,-0.03,-0.03,29.77,-1.59,-0.28,140.55
2021/10/13,31:00.9,45.375,33.75,128.875,0.027,-0.001,1.033,-0.061,-0.03,-0.061,29.78,-1.57,-0.24,140.54
2021/10/13,31:01.9,44.25,27.125,131.125,0.026,-0.002,1.033,-0.03,-0.03,-0.03,29.83,-1.76,-0.51,140.69
2021/10/13,31:02.9,45.125,31.25,129.625,0.025,-0.002,1.033,-0.03,-0.061,-0.03,29.82,-1.74,-0.48,140.72
2021/10/13,31:03.9,43.75,36.5,123.5,0.024,-0.002,1.032,0,-0.091,0,29.79,-1.45,-0.17,140.57
2021/10/13,31:04.9,45.25,31.25,128.75,0.025,-0.002,1.033,0.03,-0.091,0.03,29.83,-1.56,-0.31,140.65
2021/10/13,31:05.8,43,29.375,130.375,0.025,-0.003,1.033,-0.03,-0.061,0.03,29.85,-1.62,-0.39,140.71
2021/10/13,31:06.9,42.5,33.5,132.875,0.026,-0.003,1.033,0,-0.122,0,29.84,-1.47,-0.21,140.64
2021/10/13,31:07.8,45.125,31.75,122.375,0.025,-0.002,1.033,0,-0.061,0.03,29.85,-1.55,-0.3,140.71
2021/10/13,31:08.8,39.625,35.5,127.875,0.026,-0.001,1.032,0,-0.091,0,29.86,-1.24,0.06,140.53
2021/10/13,31:09.8,41.875,31.25,129.875,0.026,-0.003,1.032,0.061,-0.091,0,29.87,-1.33,-0.04,140.56
2021/10/13,31:10.8,43,33.875,128.625,0.026,-0.002,1.033,0.03,-0.03,0,29.85,-1.32,0,140.53
2021/10/13,31:11.8,41.75,34.125,126.625,0.026,-0.002,1.03,0,-0.061,-0.061,29.81,-1.25,0.08,140.47
2021/10/13,31:12.8,43.875,36.5,130.75,0.025,-0.002,1.032,0,-0.091,-0.03,29.85,-1.19,0.15,140.4
2021/10/13,31:13.8,45.625,31.5,131.125,0.025,-0.001,1.033,0,-0.091,0,29.89,-1.4,-0.11,140.52
2021/10/13,31:14.8,41.875,31.875,132.25,0.026,-0.003,1.032,0.03,-0.061,0.03,29.89,-1.4,-0.1,140.51
2021/10/13,31:15.8,49.5,31.125,128.875,0.025,-0.001,1.033,0.03,-0.03,0,29.9,-1.66,-0.44,140.7
2021/10/13,31:16.8,45.375,32.375,131.125,0.025,-0.001,1.033,0.061,-0.03,0,29.89,-1.63,-0.39,140.72
2021/10/13,31:17.7,43.125,35.75,132.625,0.025,-0.001,1.033,0.03,-0.03,-0.03,29.91,-1.4,-0.11,140.6
2021/10/13,31:18.7,43.875,33.125,133.5,0.026,-0.001,1.033,0,-0.061,-0.03,29.89,-1.4,-0.1,140.6
2021/10/13,31:19.7,44.875,34.25,130.125,0.024,-0.002,1.033,0.03,-0.061,0,29.89,-1.38,-0.09,140.59
2021/10/13,31:20.7,45.125,35.25,129.125,0.026,-0.003,1.033,0,-0.091,-0.03,29.91,-1.36,-0.06,140.57
2021/10/13,31:21.7,41.125,31.625,130.25,0.025,-0.002,1.033,0.03,-0.03,-0.061,29.91,-1.35,-0.05,140.55
2021/10/13,31:22.7,42.625,36.875,130.625,0.025,-0.004,1.033,0,-0.061,-0.03,29.94,-1.18,0.13,140.43
2021/10/13,31:23.7,46.5,35.375,129.625,0.024,-0.002,1.031,0,-0.091,0,29.91,-1.26,0.02,140.46
2021/10/13,31:24.7,45.75,34.25,126.625,0.024,-0.002,1.03,0.03,-0.091,0.061,29.91,-1.34,-0.07,140.5
2021/10/13,31:25.7,47.625,34.375,133,0.025,-0.002,1.031,0.03,-0.03,0,29.93,-1.43,-0.18,140.56
2021/10/13,31:26.7,44.625,36.125,131.125,0.025,-0.002,1.031,0,-0.061,-0.03,29.91,-1.32,-0.05,140.49
2021/10/13,31:27.7,45.125,33.75,129.375,0.025,-0.003,1.033,0.03,-0.061,0.03,29.92,-1.37,-0.11,140.52
2021/10/13,31:28.7,46.5,33.125,130.875,0.025,-0.003,1.032,0,-0.061,-0.061,29.91,-1.47,-0.24,140.58
2021/10/13,31:29.7,45.5,30.875,130.75,0.025,-0.002,1.032,0.061,-0.061,0,29.9,-1.58,-0.37,140.66
2021/10/13,31:30.7,41.25,31.625,130.75,0.026,-0.003,1.032,0.03,-0.122,0,29.93,-1.49,-0.24,140.62
2021/10/13,31:31.7,41.75,33.625,131,0.025,-0.002,1.032,0,-0.091,-0.03,29.9,-1.36,-0.08,140.55
2021/10/13,31:32.7,44.25,33.375,130,0.025,-0.003,1.031,0,-0.091,0.061,29.9,-1.39,-0.11,140.56
2021/10/13,31:33.7,46.125,37.125,127.875,0.026,-0.002,1.033,0,-0.061,-0.03,29.9,-1.32,-0.02,140.5
2021/10/13,31:34.7,44.25,33.125,128.125,0.025,-0.002,1.033,0.03,-0.091,0,29.92,-1.37,-0.08,140.53
2021/10/13,31:35.7,43.5,32.25,129.25,0.026,-0.002,1.032,-0.061,-0.061,-0.061,29.93,-1.42,-0.13,140.55
2021/10/13,31:36.7,42.5,35.75,131,0.024,-0.002,1.032,-0.03,-0.091,-0.03,29.92,-1.25,0.05,140.45
2021/10/13,31:37.7,44.75,33.5,131,0.026,-0.002,1.032,0,-0.122,0.03,29.91,-1.35,-0.04,140.48
2021/10/13,31:38.7,41.5,35.25,124.375,0.025,-0.002,1.033,0,-0.03,0,29.9,-1.21,0.11,140.38
2021/10/13,31:39.6,43.75,29.875,131.625,0.025,-0.001,1.032,0.03,-0.061,-0.061,29.91,-1.42,-0.14,140.49
2021/10/13,31:40.6,42,32.625,131.125,0.025,-0.003,1.033,-0.03,-0.061,-0.03,29.9,-1.37,-0.1,140.46
2021/10/13,31:41.6,43,35,128.625,0.025,-0.002,1.032,-0.061,-0.061,-0.03,29.89,-1.28,0,140.4
2021/10/13,31:42.6,49,31,131.625,0.025,-0.001,1.031,0.03,-0.091,-0.03,29.9,-1.57,-0.37,140.59
2021/10/13,31:43.6,45,36.5,128.5,0.026,-0.002,1.032,0.03,-0.061,-0.061,29.86,-1.41,-0.15,140.5
2021/10/13,31:44.6,45.125,33.625,129.125,0.026,-0.002,1.032,0.03,-0.061,-0.061,29.87,-1.45,-0.17,140.51
2021/10/13,31:45.6,42.625,34.5,129.5,0.026,-0.002,1.03,0.03,0,-0.03,29.86,-1.34,-0.04,140.44
2021/10/13,31:46.6,44.125,31.875,131.875,0.025,-0.002,1.031,0.03,-0.03,0,29.86,-1.43,-0.14,140.49
2021/10/13,31:47.6,46.875,34,129.875,0.026,-0.001,1.032,0.03,-0.061,0,29.85,-1.49,-0.2,140.54
2021/10/13,31:48.6,41.875,34.625,130,0.026,-0.001,1.032,0,-0.091,-0.061,29.87,-1.34,-0.01,140.45
2021/10/13,31:49.6,40.125,30.625,126.375,0.026,-0.003,1.032,0,-0.061,-0.03,29.88,-1.37,-0.05,140.45
2021/10/13,31:50.6,45.125,35.125,129.25,0.025,-0.002,1.032,-0.03,0,0,29.88,-1.35,-0.04,140.43
2021/10/13,31:51.6,45.625,30.75,129,0.025,-0.002,1.033,0.03,-0.061,-0.03,29.83,-1.53,-0.27,140.55
2021/10/13,31:52.6,45.875,31.25,124.375,0.026,0,1.033,0.03,-0.091,0.03,29.85,-1.65,-0.38,140.64
2021/10/13,31:53.6,44.25,31.75,130.75,0.025,-0.001,1.031,0,-0.061,0,29.86,-1.62,-0.34,140.65
2021/10/13,31:54.6,46,28.625,131.25,0.025,-0.002,1.032,0.03,-0.061,-0.061,29.87,-1.78,-0.56,140.79
2021/10/13,31:55.6,44.25,32.375,130.875,0.025,-0.002,1.032,0.061,-0.091,-0.03,29.88,-1.66,-0.42,140.76
2021/10/13,31:56.6,44.75,31.25,128.375,0.025,-0.002,1.031,0,-0.061,-0.03,29.89,-1.66,-0.41,140.79
2021/10/13,31:57.6,42.625,30.25,130.125,0.026,-0.002,1.031,0.03,-0.03,0,29.89,-1.63,-0.37,140.8
2021/10/13,31:58.6,44,33.625,128.25,0.025,-0.003,1.032,-0.03,-0.03,0,29.89,-1.51,-0.25,140.76
2021/10/13,31:59.6,41.875,35.125,129.875,0.025,-0.002,1.032,0,-0.091,-0.03,29.89,-1.31,-0.01,140.65
2021/10/13,32:00.6,44.875,36.25,131.125,0.025,-0.002,1.032,0,-0.091,-0.03,29.9,-1.26,0.06,140.59
2021/10/13,32:01.6,42,34.875,130.125,0.025,-0.001,1.032,0.03,-0.091,-0.03,29.91,-1.19,0.16,140.52
2021/10/13,32:02.6,43.875,32.25,132.75,0.026,-0.002,1.032,0,-0.091,-0.03,29.93,-1.32,0,140.57
2021/10/13,32:03.6,43.375,36.125,131.75,0.027,-0.001,1.033,0.061,-0.061,0.03,29.94,-1.24,0.13,140.5
2021/10/13,32:04.6,42,32.25,126.625,0.027,-0.002,1.032,0.061,-0.061,-0.03,29.91,-1.31,0.06,140.51
2021/10/13,32:05.6,45.125,34.875,130.625,0.026,-0.003,1.031,0,-0.091,0,29.94,-1.34,0.01,140.51
2021/10/13,32:06.6,40.5,33.5,131.875,0.026,-0.002,1.033,0.03,-0.03,0,29.92,-1.25,0.12,140.44
2021/10/13,32:07.6,39.625,32.375,123.875,0.027,-0.003,1.031,0,-0.061,-0.061,29.97,-1.24,0.14,140.4
2021/10/13,32:08.6,43.25,32.875,129.875,0.026,-0.002,1.034,0,-0.061,0,29.94,-1.32,0.04,140.42
2021/10/13,32:09.6,42.75,32.875,132.375,0.025,-0.002,1.033,0.061,-0.03,0,29.95,-1.33,0.01,140.42
2021/10/13,32:10.6,43.625,30.75,131,0.025,-0.002,1.032,0,-0.03,-0.03,29.95,-1.45,-0.15,140.5
2021/10/13,32:11.6,43,34.125,129.125,0.026,-0.002,1.033,0.03,-0.03,0.03,29.93,-1.38,-0.06,140.45
2021/10/13,32:12.6,41.375,33,131.625,0.025,-0.002,1.033,0.03,-0.061,-0.03,29.96,-1.32,0.01,140.41
2021/10/13,32:13.6,42.125,32.25,128.75,0.024,-0.002,1.032,0,-0.091,0,29.94,-1.34,-0.03,140.41
2021/10/13,32:14.5,41.875,35.125,124.25,0.026,-0.003,1.033,0,-0.061,0,29.95,-1.24,0.09,140.33
2021/10/13,32:15.5,41.75,34.25,126.625,0.025,-0.001,1.033,0,-0.03,-0.03,29.98,-1.21,0.14,140.28
2021/10/13,32:16.5,41.25,33,131.375,0.025,-0.002,1.033,0,-0.091,-0.061,30,-1.22,0.12,140.27
2021/10/13,32:17.5,41,33.375,132.5,0.026,-0.002,1.032,0.03,-0.061,0.03,29.95,-1.21,0.13,140.23
2021/10/13,32:18.5,42.25,33.5,130.75,0.025,-0.002,1.031,0,-0.091,0.03,29.93,-1.24,0.09,140.23
2021/10/13,32:19.5,45.125,33.75,127.875,0.025,-0.003,1.031,-0.03,-0.091,0,29.98,-1.34,-0.05,140.28
2021/10/13,32:20.5,42,32.375,128,0.025,-0.003,1.032,0.03,-0.03,-0.03,29.95,-1.35,-0.07,140.27
2021/10/13,32:21.5,44.75,31.625,131.25,0.026,-0.001,1.031,0.03,-0.03,0.03,30.01,-1.48,-0.2,140.35
2021/10/13,32:22.5,44.625,32.625,126.875,0.025,-0.001,1.032,0.03,-0.061,0.03,30.04,-1.51,-0.23,140.38
2021/10/13,32:23.5,45.375,36.125,131,0.026,-0.002,1.032,0,-0.03,0,30,-1.42,-0.11,140.33
2021/10/13,32:24.5,44.125,30.25,128.5,0.025,-0.002,1.033,0.03,-0.061,-0.03,30.03,-1.55,-0.28,140.42
2021/10/13,32:25.5,42.375,35.25,126.5,0.026,-0.003,1.032,0.03,-0.061,-0.061,30.04,-1.37,-0.08,140.31
2021/10/13,32:26.5,40.875,30.375,129.5,0.025,-0.003,1.033,-0.03,-0.122,-0.03,30.04,-1.41,-0.13,140.33
2021/10/13,32:27.5,47.625,34.125,127.875,0.025,-0.003,1.032,0.03,-0.061,0,29.97,-1.51,-0.26,140.4
2021/10/13,32:28.5,41,32.5,130.5,0.026,-0.002,1.033,0,-0.061,0.03,30.05,-1.41,-0.13,140.35
2021/10/13,32:29.5,42.75,32.125,130.5,0.025,-0.003,1.032,0.03,-0.061,-0.061,30.04,-1.43,-0.15,140.36
2021/10/13,32:30.5,42.5,29.875,126.75,0.026,-0.002,1.032,0,0,-0.03,30.02,-1.53,-0.26,140.42
2021/10/13,32:31.5,45.875,33.375,128.625,0.025,-0.002,1.033,0,-0.061,-0.03,30.03,-1.55,-0.29,140.45
2021/10/13,32:32.5,42.875,31.875,130.875,0.026,-0.002,1.031,0.03,-0.03,-0.03,30.04,-1.52,-0.24,140.45
2021/10/13,32:33.5,44.75,33.875,130.25,0.025,-0.002,1.033,0,0,-0.03,30.04,-1.48,-0.2,140.43
2021/10/13,32:34.5,44.125,32.75,124.5,0.026,-0.001,1.033,-0.03,-0.091,0,30.04,-1.5,-0.2,140.45
2021/10/13,32:35.5,42.25,33,126.375,0.026,-0.003,1.031,0.03,-0.091,-0.03,30.02,-1.44,-0.12,140.42
2021/10/13,32:36.5,42.125,30.125,131.375,0.026,-0.001,1.034,0,-0.122,0.03,30.09,-1.51,-0.2,140.46
2021/10/13,32:37.5,39.875,32.75,126.875,0.025,-0.002,1.031,0.03,0,-0.03,30.03,-1.35,-0.03,140.38
2021/10/13,32:38.5,47.875,31.625,130,0.026,-0.002,1.032,0.03,-0.152,-0.061,30.08,-1.58,-0.31,140.52
2021/10/13,32:39.5,44.5,33.625,131.125,0.026,-0.002,1.033,0.061,-0.03,-0.061,30.09,-1.52,-0.24,140.5
2021/10/13,32:40.5,46.625,37.5,129.875,0.025,-0.002,1.033,0.03,-0.061,-0.03,30.08,-1.4,-0.09,140.43
2021/10/13,32:41.4,47.25,33.375,129.875,0.025,-0.002,1.031,0,-0.061,-0.03,30.09,-1.51,-0.24,140.51
2021/10/13,32:42.4,42.625,31.25,125.75,0.025,-0.002,1.032,-0.03,-0.061,0,30.09,-1.51,-0.24,140.52
2021/10/13,32:43.4,44.75,31.75,134,0.025,-0.002,1.031,0,-0.061,-0.061,30.08,-1.55,-0.29,140.56
2021/10/13,32:44.4,44.875,32.875,123.625,0.025,-0.001,1.033,0,-0.061,-0.03,30.09,-1.55,-0.27,140.58
2021/10/13,32:45.4,42.875,34.125,130.875,0.026,-0.002,1.032,0.03,-0.091,0,30.09,-1.43,-0.12,140.51
2021/10/13,32:46.4,42.375,30.125,128.625,0.025,-0.002,1.031,-0.03,-0.091,0,30.08,-1.5,-0.22,140.56
2021/10/13,32:47.4,42.625,34.875,128.625,0.025,-0.002,1.031,0,0,0.03,30.09,-1.34,-0.05,140.48
2021/10/13,32:48.4,43,34.5,129,0.025,-0.002,1.032,0.061,-0.091,0.03,30.14,-1.29,0.02,140.44
2021/10/13,32:49.4,41.25,30.375,125.625,0.024,-0.002,1.032,0,-0.061,0,30.09,-1.37,-0.09,140.48
2021/10/13,32:50.4,41.75,31.5,128.5,0.024,-0.003,1.031,0,-0.122,-0.03,30.09,-1.38,-0.12,140.48
2021/10/13,32:51.4,44.875,36,130.125,0.024,-0.002,1.03,0,-0.122,0,30.09,-1.31,-0.03,140.43
2021/10/13,32:52.4,46,33.125,126.5,0.025,-0.002,1.031,0.061,-0.061,-0.061,30.08,-1.42,-0.17,140.5
2021/10/13,32:53.4,44.375,32.375,125.25,0.025,-0.003,1.032,0.03,-0.122,-0.03,30.08,-1.47,-0.22,140.53
2021/10/13,32:54.4,43.125,35,131.625,0.025,-0.001,1.031,0.03,-0.061,0,30.07,-1.35,-0.05,140.46
2021/10/13,32:55.4,41.625,34,127.875,0.025,-0.002,1.033,0.03,-0.091,-0.061,30.12,-1.27,0.05,140.4
2021/10/13,32:56.4,47.375,36,128.875,0.024,-0.001,1.033,0,-0.061,-0.03,30.1,-1.33,-0.02,140.42
2021/10/13,32:57.4,45.25,36.25,128.625,0.025,-0.003,1.032,0,-0.091,-0.03,30.12,-1.3,0.01,140.38
2021/10/13,32:58.4,43.5,31.875,127,0.026,-0.001,1.033,0,-0.061,0,30.13,-1.4,-0.09,140.43
2021/10/13,32:59.4,44,37,128,0.024,-0.002,1.032,-0.03,-0.061,0,30.13,-1.24,0.06,140.34
2021/10/13,33:00.4,43.125,37,126.25,0.025,-0.002,1.032,0,-0.091,-0.03,30.13,-1.14,0.19,140.24
2021/10/13,33:01.4,41.75,33.25,123.125,0.025,-0.003,1.031,0,-0.091,0,30.09,-1.19,0.12,140.24
2021/10/13,33:02.4,45.25,32.625,124.5,0.025,-0.002,1.03,0,-0.061,0,30.12,-1.36,-0.08,140.33
2021/10/13,33:03.4,44.75,31.5,130.25,0.025,-0.002,1.032,0,-0.091,0,30.14,-1.49,-0.23,140.4
2021/10/13,33:04.4,47.25,33.375,127.375,0.025,-0.001,1.034,0.03,0,-0.03,30.16,-1.57,-0.31,140.47
2021/10/13,33:05.4,42.375,33.5,125.375,0.025,-0.003,1.033,0,-0.061,-0.03,30.14,-1.45,-0.18,140.41
2021/10/13,33:06.4,41.625,32.25,130.625,0.025,-0.003,1.032,-0.03,0,0,30.16,-1.39,-0.13,140.39
2021/10/13,33:07.4,43,29.875,130.625,0.025,-0.002,1.032,0,-0.03,0.03,30.18,-1.5,-0.27,140.46
2021/10/13,33:08.4,44.875,34.75,127.875,0.024,-0.001,1.033,0.03,-0.061,0,30.13,-1.43,-0.18,140.43
2021/10/13,33:09.4,40.75,31.375,128.125,0.024,-0.001,1.032,0.03,-0.122,0,30.14,-1.38,-0.11,140.41
2021/10/13,33:10.4,40.5,35.75,130,0.024,-0.001,1.032,0,-0.03,-0.03,30.15,-1.16,0.14,140.28
2021/10/13,33:11.3,39.5,32,122.625,0.024,-0.002,1.032,0,-0.061,-0.061,30.14,-1.16,0.14,140.25
2021/10/13,33:12.3,42,35.25,130.75,0.025,-0.001,1.032,0,-0.091,0,30.16,-1.13,0.2,140.19
2021/10/13,33:13.3,42.875,31.25,130.375,0.024,-0.002,1.032,-0.03,-0.091,0,30.19,-1.29,-0.01,140.26
2021/10/13,33:14.3,42.875,31.75,130.5,0.026,-0.002,1.032,0.03,-0.091,-0.03,30.17,-1.39,-0.1,140.3
2021/10/13,33:15.3,42,34,128.375,0.024,-0.002,1.033,0,-0.061,0,30.18,-1.3,-0.01,140.25
2021/10/13,33:16.3,45,32.375,125.25,0.025,-0.002,1.031,-0.03,-0.061,-0.03,30.19,-1.43,-0.17,140.32
2021/10/13,33:17.3,47.5,31,132,0.024,-0.002,1.032,-0.061,-0.091,0,30.2,-1.62,-0.43,140.46
2021/10/13,33:18.3,46.5,34.625,131.5,0.025,-0.003,1.032,0,-0.061,-0.061,30.19,-1.57,-0.36,140.45
2021/10/13,33:19.2,42.125,32.5,130.5,0.025,-0.003,1.032,0,-0.091,-0.061,30.22,-1.47,-0.24,140.41
2021/10/13,33:20.2,44,35.875,127.875,0.025,-0.003,1.032,0.061,-0.061,-0.03,30.19,-1.34,-0.09,140.33
2021/10/13,33:21.3,43.125,32.75,132.625,0.025,-0.002,1.033,0.061,-0.061,0.03,30.2,-1.36,-0.1,140.34
2021/10/13,33:22.2,42.75,34.125,127.5,0.026,-0.001,1.033,0,-0.122,0,30.19,-1.32,-0.03,140.3
2021/10/13,33:23.3,41.5,33.125,128.125,0.027,-0.001,1.032,-0.061,-0.061,-0.03,30.16,-1.31,0.02,140.27
2021/10/13,33:24.2,43.125,31.875,127.375,0.025,-0.002,1.032,0.03,-0.061,0.061,30.17,-1.4,-0.09,140.31
2021/10/13,33:25.2,43.125,37.125,127.625,0.026,-0.003,1.033,0.03,-0.122,-0.03,30.15,-1.23,0.1,140.2
2021/10/13,33:26.2,42.5,32.75,128.625,0.025,-0.002,1.031,0.03,-0.091,0.03,30.18,-1.29,0.02,140.22
2021/10/13,33:27.2,43.25,33.625,128.375,0.026,-0.002,1.033,0,-0.091,0.03,30.2,-1.33,-0.01,140.22
2021/10/13,33:28.2,41.875,35.75,130,0.025,-0.002,1.032,0.061,-0.122,-0.03,30.23,-1.2,0.14,140.13
2021/10/13,33:29.2,44.625,33.125,130.125,0.025,-0.002,1.032,0.03,-0.061,0,30.2,-1.33,-0.02,140.19
2021/10/13,33:30.2,44.5,32.375,130.75,0.024,-0.002,1.032,0,-0.061,-0.061,30.2,-1.42,-0.14,140.24
2021/10/13,33:31.2,41.5,33.125,128,0.025,-0.002,1.031,-0.03,-0.061,0,30.18,-1.35,-0.06,140.2
2021/10/13,33:32.2,43.25,33.5,129,0.025,-0.001,1.032,0.03,-0.061,-0.061,30.21,-1.36,-0.06,140.19
2021/10/13,33:33.2,46.75,37.125,131.125,0.025,-0.003,1.032,0,-0.061,0.03,30.24,-1.34,-0.03,140.17
2021/10/13,33:34.2,43.375,37.75,132.625,0.025,-0.003,1.032,-0.03,-0.03,0.03,30.2,-1.17,0.13,140.06
