Date ,Time, MagX , MagY , MagZ , AccX , AccY , AccZ , GyroX , GyroY , GyroZ , Temp , Roll , Pitch , Yaw
2021/10/13,13:34.2,32,-6,131.875,0.023,-0.033,1.033,-0.03,-0.03,0.03,28.26,-0.22,-0.93,-179.88
2021/10/13,13:35.2,34.25,-6.5,134.25,0.022,-0.032,1.032,0,-0.03,-0.061,28.22,-0.41,-1.49,-179.78
2021/10/13,13:36.2,35.25,-7.25,135.125,0.021,-0.033,1.031,0,-0.03,0.03,28.19,-0.56,-1.87,-179.7
2021/10/13,13:37.1,33.75,-8196.875,131.375,0.021,-0.032,1.032,0,-0.03,0.03,28.28,0.03,-2.38,-167.34
2021/10/13,13:38.1,33.25,-8197.375,134.75,0.021,-0.033,1.033,0,0,0,28.3,0.55,-2.76,-155.43
2021/10/13,13:39.1,32.75,-8197.375,135.5,0.021,-0.033,1.033,0.03,0,0,28.32,0.95,-2.97,-144.45
2021/10/13,13:40.1,34,-8199,133.375,0.022,-0.032,1.034,0.061,0.03,0.061,28.29,1.19,-3.03,-134.69
2021/10/13,13:41.2,31.625,-8198,130.25,0.021,-0.032,1.033,0.091,-0.03,0,28.32,1.27,-2.99,-126.27
2021/10/13,13:42.1,31.75,-5.875,127.125,0.021,-0.032,1.034,0,0,0.03,28.29,-0.52,-0.08,-127
2021/10/13,13:43.1,36.75,-5.625,133.75,0.021,-0.033,1.033,0.061,-0.03,0,28.32,-1.85,1.58,-127.63
2021/10/13,13:44.1,33.375,-24579.75,132.125,0.022,-0.032,1.033,0.03,0,0.061,28.32,-1.81,0.93,-120.24
2021/10/13,13:45.1,34.75,-6.5,133.625,0.021,-0.033,1.033,0,-0.03,0.061,28.32,-2.95,1.98,-120.74
2021/10/13,13:46.1,32.625,-8196.625,128.5,0.021,-0.033,1.031,0.091,0,-0.03,28.3,-2.62,1.24,-114.56
2021/10/13,13:47.1,34.125,-6.125,132.125,0.021,-0.032,1.033,0,0,0.03,28.27,-3.71,2.18,-115.04
2021/10/13,13:48.1,30.375,-8197.25,133.625,0.021,-0.032,1.032,0.03,0,0,28.29,-3.23,1.39,-109.9
2021/10/13,13:49.1,32.25,-6.25,136.5,0.021,-0.032,1.033,0,0,0.03,28.27,-4.14,2.03,-110.27
2021/10/13,13:50.1,32.875,-7.625,132.125,0.02,-0.032,1.031,0,0,0.03,28.21,-4.75,2.31,-110.61
2021/10/13,13:51.1,35.375,-4.75,134.25,0.021,-0.032,1.033,0.03,-0.03,0.03,28.3,-5.29,2.7,-110.96
2021/10/13,13:52.1,32.125,-8197.625,131.875,0.021,-0.033,1.033,0.03,0,0.03,28.24,-4.49,1.8,-106.6
2021/10/13,13:53.1,31.125,-5.125,137.125,0.022,-0.032,1.032,0.061,0.03,0.03,28.27,-5,2.08,-106.86
2021/10/13,13:54.1,36,-16390.875,133.5,0.021,-0.032,1.031,0.03,0.03,0,28.27,-4.23,1.3,-103.3
2021/10/13,13:55.1,32.625,-16389,127.625,0.021,-0.033,1.032,0.03,-0.061,0.03,28.28,-3.59,0.66,-100.47
2021/10/13,13:56.1,34.5,-6.625,131.875,0.021,-0.03,1.033,0.061,0,0.03,28.26,-4.96,1.85,-101.02
2021/10/13,13:57.1,33.875,-9.25,132.125,0.021,-0.033,1.032,0.03,0.03,0,28.26,-5.69,2.14,-101.38
2021/10/13,13:58.1,34,-5.875,135.375,0.021,-0.033,1.031,0.061,0,0,28.3,-6.1,2.32,-101.67
2021/10/13,13:59.1,30.875,-6.25,127.875,0.021,-0.032,1.032,0.03,0,0.03,28.24,-6.25,2.25,-101.87
2021/10/13,14:00.1,34.875,-9.875,131.125,0.022,-0.031,1.032,0.061,0.03,-0.03,28.25,-6.53,2.27,-102.17
2021/10/13,14:01.1,34.5,-7.625,138.5,0.021,-0.032,1.032,0,0,0,28.26,-6.55,2.18,-102.37
2021/10/13,14:02.1,32.375,-8198.25,132.125,0.021,-0.033,1.032,0.061,0.061,0,28.25,-5.42,1.36,-99.73
2021/10/13,14:03.1,31.5,-8202.375,130.375,0.021,-0.032,1.033,0.061,0,0.03,28.22,-4.5,0.71,-97.65
2021/10/13,14:04.1,31.75,-5.375,128.375,0.021,-0.032,1.032,0.03,0,0.03,28.22,-5.49,1.62,-98.07
2021/10/13,14:05.0,33.5,-10,132.875,0.022,-0.031,1.03,-0.03,-0.061,0,28.16,-6.1,1.86,-98.4
2021/10/13,14:06.0,33,-9.5,137.5,0.021,-0.033,1.031,0.03,0,0.03,28.18,-6.33,1.82,-98.62
2021/10/13,14:07.1,32.625,-8198.625,134,0.022,-0.031,1.033,0,0,0.03,28.17,-5.24,1.08,-96.77
2021/10/13,14:08.1,34.5,-6.875,130.375,0.021,-0.032,1.03,0.03,0,0.03,28.14,-6.13,1.81,-97.2
2021/10/13,14:09.1,31.375,-6.25,131.875,0.021,-0.032,1.033,0.03,0,0.061,28.17,-6.38,1.9,-97.42
2021/10/13,14:10.1,32.125,-7.625,137.5,0.022,-0.032,1.032,0,0,0.061,28.17,-6.49,1.83,-97.6
2021/10/13,14:11.0,32.5,-8.375,132.75,0.022,-0.032,1.032,0.03,0,0.03,28.2,-6.64,1.82,-97.82
2021/10/13,14:12.1,34.5,-6.875,132.625,0.022,-0.032,1.032,-0.03,0,0.03,28.13,-6.9,2,-98.09
2021/10/13,14:13.0,34.375,-7.125,130.25,0.021,-0.033,1.033,0.03,-0.03,0.03,28.18,-7.06,2.08,-98.35
2021/10/13,14:14.0,35.125,-4.875,133,0.023,-0.031,1.033,0.03,0,0,28.17,-7.2,2.25,-98.6
2021/10/13,14:15.0,33.25,-8198.375,133.625,0.023,-0.032,1.033,0.061,0,0.061,28.17,-5.93,1.42,-96.75
2021/10/13,14:16.0,36.125,-7,132,0.022,-0.032,1.033,0,-0.061,0.03,28.14,-6.65,1.99,-97.16
2021/10/13,14:17.0,36.5,-8.875,133.625,0.022,-0.031,1.032,-0.03,-0.061,0.03,28.17,-7.04,2.17,-97.49
2021/10/13,14:18.0,32.75,-7.5,131.25,0.022,-0.031,1.031,0.061,-0.03,0,28.15,-7.03,2.05,-97.68
2021/10/13,14:19.0,31.875,-7,132.75,0.021,-0.032,1.031,0,-0.03,0.03,28.12,-6.92,1.89,-97.83
2021/10/13,14:20.0,35.375,-7.875,133.625,0.023,-0.031,1.032,0.03,0,0.03,28.13,-7.11,2.01,-98.1
2021/10/13,14:21.0,33.75,-16388.125,131.625,0.021,-0.031,1.033,0,0.03,0,28.17,-5.86,1.23,-96.35
2021/10/13,14:22.0,32.625,-8195.75,133,0.022,-0.031,1.034,0.061,0,0.03,28.14,-4.85,0.61,-94.98
2021/10/13,14:23.0,33.75,-8195.375,133,0.023,-0.031,1.032,0.091,0,0.091,28.18,-4.06,0.12,-93.91
2021/10/13,14:23.9,33.25,-6.25,133.5,0.021,-0.031,1.033,0,0.03,0.03,28.17,-5.38,1.34,-94.4
2021/10/13,14:25.0,35.625,-6.125,135.75,0.021,-0.033,1.033,0.061,-0.03,-0.03,28.2,-6.28,1.99,-94.82
2021/10/13,14:26.0,34.5,-8195.625,128.75,0.022,-0.032,1.033,0.03,0.03,0,28.22,-5.2,1.19,-93.78
2021/10/13,14:26.9,33.5,-16389.25,133.375,0.021,-0.033,1.034,0,-0.03,0.03,28.2,-4.34,0.55,-92.96
2021/10/13,14:27.9,31.875,-8.375,136.75,0.022,-0.031,1.033,0.061,0,0,28.19,-5.42,1.27,-93.33
2021/10/13,14:29.0,33.625,-16390.25,134.375,0.021,-0.032,1.031,0.03,-0.03,-0.03,28.14,-4.51,0.62,-92.61
2021/10/13,14:29.9,28.75,-8200,127.625,0.022,-0.031,1.03,0.03,0,0,28.17,-3.8,0.11,-92.05
2021/10/13,14:30.9,35.375,-8197.875,135.625,0.021,-0.032,1.032,-0.03,0,0.061,28.12,-3.22,-0.29,-91.62
2021/10/13,14:31.9,32.25,-7.125,132.125,0.022,-0.032,1.031,0,-0.03,0,28.09,-4.94,1.13,-92.17
2021/10/13,14:32.9,36.5,-16387.75,133.25,0.022,-0.033,1.032,0,0,0.03,28.08,-4.13,0.49,-91.69
2021/10/13,14:33.9,37.125,-7.375,131.875,0.021,-0.032,1.031,0,-0.061,0,28.02,-5.85,1.83,-92.35
2021/10/13,14:34.9,34.875,-8198.875,129.875,0.013,-0.034,1.029,1.89,-2.53,-0.122,28.08,-4.87,1.11,-91.85
2021/10/13,14:35.9,91.25,70.875,60.75,0.298,0.169,0.958,17.805,-54.482,1.463,27.97,-13.06,14.79,-102.32
2021/10/13,14:36.9,119.5,84.875,-32765.375,0.809,0.516,0.313,-8.354,37.104,4.634,28.01,-18.15,12.46,-102.41
2021/10/13,14:37.9,-60.875,43.125,91,-0.391,0.239,0.941,-7.866,104.817,17.012,28.04,1.46,20.61,-97.33
2021/10/13,14:38.9,-55.875,33,95.375,-0.649,0.194,0.763,-0.213,-46.982,-10.122,28.06,12.93,24.47,-96.07
2021/10/13,14:39.9,15.75,-92,15.25,-0.081,-0.75,0.646,-82.835,1.494,32.744,28.02,12.68,8.38,-98.33
2021/10/13,14:40.9,38.75,-8213.75,96.625,0.026,-0.46,0.791,118.628,-0.213,-29.848,28.02,10.1,5.85,-99.45
2021/10/13,14:41.9,8196.875,73.375,105.75,-0.036,0.79,0.613,-57.744,33.628,-4.665,28.05,12.92,10.46,-110.8
2021/10/13,14:42.9,10.25,-8197.875,126.625,-0.154,-0.114,1.181,-21.28,6.646,0.488,28.01,11.58,6.21,-106.87
2021/10/13,14:43.9,16.875,8216.625,118.5,-0.21,0.175,0.832,-71.098,7.53,-10,27.98,12.92,6.85,-110.41
2021/10/13,14:44.9,19.375,90.25,113.25,-0.188,0.31,0.697,25.091,6.098,7.439,27.97,12.71,22.78,-111.44
2021/10/13,14:45.9,46,9.75,99.75,-0.045,-0.066,0.877,36.28,-46.585,-7.5,27.96,5.53,22.05,-117.17
2021/10/13,14:46.9,-11,-18.375,113.625,-0.187,-0.169,0.946,-66.341,78.476,19.238,27.96,13.07,12.05,-115.25
2021/10/13,14:47.9,28.5,8199.625,120.625,-0.168,0.171,1.023,31.555,-17.165,6.951,27.96,12.72,18.39,-119.96
2021/10/13,14:48.9,24.25,-8199.625,111.5,0.123,-0.141,1.014,-4.451,3.415,2.409,27.93,7.4,13.08,-114.73
2021/10/13,14:49.9,-16387.375,16389.375,72.875,0.093,0.037,1.1,-14.97,3.323,29.634,27.92,7.91,15.05,-109.12
2021/10/13,14:50.9,26.5,21.75,105.125,-0.093,0.092,1.026,-4.329,-12.713,-11.646,27.91,4.05,16.13,-111.31
2021/10/13,14:51.9,47.75,14.375,118.125,-0.13,-0.009,1.024,-8.811,12.744,-17.012,27.92,2.59,15.25,-114
2021/10/13,14:52.9,53.875,8201.125,120,-0.123,-0.164,1.039,4.177,6.22,-15.122,27.92,5.39,16.62,-119.57
2021/10/13,14:53.9,44.25,-32765.125,122.375,0.03,-0.305,1.035,11.433,8.171,5.732,27.9,3.08,10.97,-114.03
2021/10/13,14:54.8,43.875,-16385.75,116.375,0.199,-0.354,1.106,26.463,-3.811,8.323,27.86,-0.49,6.58,-109.1
2021/10/13,14:55.9,42.125,-14,110.5,0.301,-0.127,1.06,19.177,-17.866,18.415,27.87,-7.12,6.64,-109.8
2021/10/13,14:56.9,30.375,-6.25,88.875,0.216,0.096,1.071,-0.854,0.732,30.549,27.83,-9.54,7.02,-108.88
2021/10/13,14:57.9,38.875,8202,92,0.031,0.152,1.078,2.134,-10.701,-9.451,27.87,-7.52,10.69,-113.79
2021/10/13,14:58.9,50.25,19,115.875,-0.079,0.025,1.151,-9.97,14.604,-20.579,27.89,-6.11,10.97,-115.55
2021/10/13,14:59.9,55.125,14,116.75,-0.044,-0.098,1.071,4.665,-2.104,-19.756,27.86,-6.41,10.58,-117.54
2021/10/13,15:00.8,57.875,8197.25,117,0.194,-0.099,1.045,6.006,-15.457,3.262,27.88,-6.85,12.11,-123.15
2021/10/13,15:01.8,34.875,-11.875,106.625,0.256,-0.129,1.081,2.378,0.976,40.03,27.87,-8.56,8.08,-120.8
2021/10/13,15:02.9,36,19.375,91.125,0.079,0.223,1.002,14.116,-15.396,-23.902,27.89,-9.28,13.2,-123.44
2021/10/13,15:03.9,42.75,15.75,111,-0.059,0.119,1.029,-6.585,6.646,-28.994,27.9,-6.95,12.83,-125.07
2021/10/13,15:04.9,49.75,10.875,117.5,-0.042,-0.064,1.006,1.982,2.5,-21.28,27.91,-5.89,10.96,-126.43
2021/10/13,15:05.9,55.75,9.875,112.125,0.061,-0.094,0.925,18.841,-12.683,-1.86,27.9,-7.64,10.62,-127.54
2021/10/13,15:06.8,67.5,23.375,118.5,0.366,0.009,1.094,26.28,-19.482,3.537,27.89,-12.55,13.4,-129.33
2021/10/13,15:07.9,14.625,-11.875,125.375,0.109,-0.039,0.976,-7.226,25.457,19.36,27.9,-6.56,8.89,-126.54
2021/10/13,15:08.8,43,-10.125,139.625,0.006,-0.065,1.084,92.622,1.494,-16.067,27.87,-5.23,10.91,-127.08
2021/10/13,15:09.8,43.625,-16386.375,143.75,-0.011,-0.04,1.033,3.384,0,-1.189,27.9,-5.06,8.78,-120.04
2021/10/13,15:10.8,48.125,32766.75,143.875,-0.009,-0.023,1.035,0.03,-0.03,-0.03,27.9,-2.78,10.14,-126.23
2021/10/13,15:11.8,45.25,-8194.375,139.25,-0.009,-0.023,1.035,0,0.03,-0.03,27.91,-3.02,8.13,-119.28
2021/10/13,15:12.8,46.875,-16386.5,139.125,-0.011,-0.025,1.035,0.03,0.03,-0.03,27.92,-2.89,6.36,-113.46
2021/10/13,15:13.8,48.5,-8195.25,141.375,-0.01,-0.024,1.034,0.061,0.061,0.03,27.91,-2.51,4.87,-108.7
2021/10/13,15:14.8,48.25,-3.875,138.25,-0.009,-0.023,1.035,0.03,0.03,0.03,27.94,-4.09,5.75,-109.67
2021/10/13,15:15.8,50.375,-24578.75,138.75,-0.011,-0.023,1.034,0,-0.03,0.03,27.94,-3.4,4.36,-105.61
2021/10/13,15:16.8,47.25,-8195.625,140.375,-0.009,-0.023,1.034,-0.03,0,0.03,27.94,-2.7,3.21,-102.37
2021/10/13,15:17.8,47.125,-16386.125,136.125,-0.009,-0.023,1.034,0.03,0.03,0.061,27.93,-2.11,2.29,-99.77
2021/10/13,15:18.8,48.125,-24576.5,143.375,-0.009,-0.024,1.034,-0.061,-0.03,0.061,27.97,-1.59,1.53,-97.69
2021/10/13,15:19.8,49.75,-16390,139.5,-0.01,-0.024,1.032,0.061,0,0.03,27.96,-1.15,0.93,-96.07
2021/10/13,15:20.8,50.25,-16387.125,140.375,-0.008,-0.024,1.033,-0.03,-0.03,0.061,27.99,-0.81,0.45,-94.79
2021/10/13,15:21.8,50.875,-8195.375,144.875,-0.009,-0.024,1.034,-0.03,0.03,0.03,28.02,-0.5,0.06,-93.83
2021/10/13,15:22.8,47.625,-16387,143.75,-0.009,-0.024,1.033,0.03,0,0.061,27.98,-0.28,-0.24,-93.03
2021/10/13,15:23.7,49.5,-24576.125,140.625,-0.008,-0.024,1.033,0,0,0,28,-0.11,-0.47,-92.4
2021/10/13,15:24.7,51.375,-8196.625,142.625,-0.01,-0.023,1.033,-0.061,-0.03,0,27.98,0.04,-0.65,-91.96
2021/10/13,15:25.7,47,-8195.25,139.375,-0.01,-0.024,1.033,0,0,0,27.97,0.16,-0.8,-91.61
2021/10/13,15:26.7,50.25,24574.625,141.125,-0.01,-0.024,1.033,0.061,-0.061,0,28.01,0.24,-1.11,-91.99
2021/10/13,15:27.7,49.75,-24576.75,139.75,-0.009,-0.024,1.034,0.061,0,0.061,27.96,0.3,-1.16,-91.58
2021/10/13,15:28.7,45.75,-4.875,140,-0.01,-0.025,1.033,0,0.061,0.03,28.01,-3.22,2.44,-93.03
2021/10/13,15:29.7,46,-16386.375,141.875,-0.01,-0.023,1.034,0,0.03,0.03,27.99,-2.42,1.64,-92.4
2021/10/13,15:30.7,43.25,-16387.125,140.875,-0.01,-0.023,1.034,0,-0.03,0.061,28.01,-1.78,1.01,-91.9
2021/10/13,15:31.7,47,16383.625,141.875,-0.009,-0.023,1.035,0.03,0.03,0.061,28.01,-1.27,1.17,-92.34
2021/10/13,15:32.7,46.75,-16385.125,143,-0.01,-0.022,1.034,0.03,0,0.061,28.04,-0.88,0.66,-91.86
2021/10/13,15:33.7,47.625,-8195.125,141.625,-0.009,-0.022,1.033,0.03,0,0,28.06,-0.58,0.25,-91.53
2021/10/13,15:34.7,45.625,-4.625,141.125,-0.009,-0.023,1.034,0.03,0.03,0.061,28.07,-3.75,3.12,-92.83
2021/10/13,15:35.7,50,-8194.5,142.75,-0.009,-0.023,1.034,0,0,0.061,28.06,-2.84,2.17,-92.27
2021/10/13,15:36.7,49.25,-24576.5,142,-0.01,-0.024,1.034,-0.03,-0.03,0.061,28.09,-2.12,1.41,-91.79
2021/10/13,15:37.7,47.5,-16387.5,142.25,-0.009,-0.024,1.034,0,0,0,28.11,-1.55,0.82,-91.43
2021/10/13,15:38.7,47.75,-16386.875,139.625,-0.009,-0.024,1.034,0.061,0,0.03,28.09,-1.1,0.36,-91.15
2021/10/13,15:39.7,49.125,-24579.125,143.125,-0.01,-0.023,1.035,0,0,0.061,28.1,-0.74,0.01,-90.92
2021/10/13,15:40.7,52.125,32765.75,139,-0.01,-0.023,1.033,0.03,-0.03,0.03,28.11,-0.46,-0.16,-91.14
2021/10/13,15:41.7,52.5,-3.5,145.25,-0.009,-0.021,1.035,0,0,0.03,28.12,-4.03,3.38,-92.77
2021/10/13,15:42.7,49,-16385.875,138.625,-0.01,-0.023,1.035,0.03,-0.061,0.061,28.13,-3.06,2.38,-92.2
2021/10/13,15:43.7,48,-8195.375,143.75,-0.009,-0.023,1.035,0,0,0.03,28.17,-2.3,1.59,-91.78
2021/10/13,15:44.7,51.625,-24575.625,136.5,-0.009,-0.022,1.035,0,0,0.061,28.17,-1.7,0.98,-91.41
2021/10/13,15:45.7,43.875,32765,142.25,-0.009,-0.022,1.035,0,-0.061,0.03,28.18,-1.22,1.04,-91.72
2021/10/13,15:46.7,52,-8194.125,142.75,-0.01,-0.023,1.035,0.061,0,0.122,28.18,-0.84,0.55,-91.42
2021/10/13,15:47.7,51.375,-1.875,141.5,-0.009,-0.023,1.035,-0.03,0,0.091,28.22,-4.26,3.84,-93
2021/10/13,15:48.7,49.125,-8195.75,138.875,-0.009,-0.023,1.035,0,0,0.061,28.22,-3.25,2.75,-92.41
2021/10/13,15:49.6,44.375,-8192.75,141.125,-0.007,-0.023,1.035,0.03,-0.03,0.091,28.23,-2.47,1.88,-91.94
2021/10/13,15:50.6,25.75,-8197.75,128,-0.181,-0.143,1.199,-2.957,1.159,0.884,28.14,-0.04,-0.11,-91.53
2021/10/13,15:51.6,39.25,37.25,122.75,0.006,0.086,0.935,-3.567,2.713,-0.854,28.14,-3.02,8.85,-93.71
2021/10/13,15:52.6,26.875,42.375,120.25,-0.088,0.117,0.947,3.689,-10.518,-9.299,28.13,-3.27,13.76,-95.09
2021/10/13,15:53.6,33.625,45.125,126.5,-0.114,0.027,0.855,1.372,-4.604,-4.146,28.12,-3.15,15.06,-95.93
2021/10/13,15:54.6,43,61.125,117.625,0,0.099,0.92,7.409,-2.256,20.701,28.12,-5.41,19.71,-96.57
2021/10/13,15:55.6,20,57.5,118.875,0.15,0.164,0.943,39.421,9.573,12.134,28.04,-6.48,22.18,-96.08
2021/10/13,15:56.6,42.375,39.375,120.625,0.142,0.032,1.092,-11.037,37.652,20.823,28.06,-7.66,18.97,-94.73
2021/10/13,15:57.6,22.625,32.125,122.75,-0.4,-0.098,0.71,-0.549,9.482,-11.89,27.97,-0.15,14.18,-95.18
2021/10/13,15:58.6,41.25,28.5,125.25,-0.015,-0.049,1.05,8.537,-4.756,8.415,27.99,-3.53,14.33,-96.04
2021/10/13,15:59.6,43,31.125,131.5,0,-0.047,1.034,0.396,0.03,-0.091,28.02,-5.44,13.47,-96.73
2021/10/13,16:00.6,43.125,29.125,132.125,0,-0.045,1.032,0.213,0,0.061,27.93,-6.58,12.42,-97.18
2021/10/13,16:01.6,43.375,27.5,134.25,0,-0.041,1.033,0.122,0,0.03,27.97,-7.24,11.41,-97.51
2021/10/13,16:02.6,43.25,30.375,128.5,0.001,-0.041,1.034,0.091,0.061,0.03,27.97,-7.73,11.18,-97.93
2021/10/13,16:03.6,39.125,32,128,-0.001,-0.038,1.034,0.091,0,0.061,27.95,-7.7,10.85,-98.2
2021/10/13,16:04.6,41.375,30.625,130.5,0,-0.037,1.033,0.091,0.03,0.091,27.94,-7.79,10.6,-98.52
2021/10/13,16:05.6,43.5,29,131.875,-0.001,-0.034,1.034,0.091,-0.061,0.03,27.94,-7.96,10.43,-98.88
2021/10/13,16:06.6,41.875,31.375,134,-0.002,-0.032,1.033,0.061,-0.061,0.061,27.93,-7.87,10.34,-99.2
2021/10/13,16:07.6,43.25,27.25,135,-0.003,-0.032,1.034,0.03,-0.03,0.03,27.93,-7.89,9.98,-99.49
2021/10/13,16:08.6,37.75,33.5,125.875,-0.002,-0.032,1.034,0.061,0.061,0.061,27.93,-7.62,10.48,-99.88
2021/10/13,16:09.6,42.875,30.25,131.125,-0.003,-0.031,1.033,0,0.03,0.061,27.93,-7.74,10.53,-100.29
2021/10/13,16:10.6,44.625,29.375,133.25,-0.003,-0.031,1.035,0.03,0,0.03,27.93,-7.87,10.48,-100.7
2021/10/13,16:11.6,41.625,30.875,135.125,-0.003,-0.029,1.034,0.03,0,0.03,27.94,-7.69,10.29,-100.98
2021/10/13,16:12.6,40.875,30.75,128.625,-0.003,-0.03,1.034,0.03,0.03,0.03,27.93,-7.64,10.44,-101.37
2021/10/13,16:13.6,40,31.75,128.875,-0.004,-0.03,1.033,0.03,0.03,0.091,27.97,-7.52,10.56,-101.73
2021/10/13,16:14.5,42.375,30.375,129.75,-0.003,-0.029,1.033,0.03,0.03,0.061,27.95,-7.59,10.64,-102.15
2021/10/13,16:15.5,42.75,31.75,131.5,-0.003,-0.029,1.033,0.03,-0.03,0.061,27.93,-7.6,10.75,-102.56
2021/10/13,16:16.5,42.25,29.25,132.875,-0.004,-0.029,1.033,0.03,0,0.091,27.96,-7.55,10.45,-102.88
2021/10/13,16:17.6,43.125,32.25,129.75,-0.003,-0.03,1.034,0,0.03,0.03,27.97,-7.59,10.81,-103.37
2021/10/13,16:18.5,42.625,30.125,131.375,-0.004,-0.029,1.034,0,-0.03,0.061,27.94,-7.56,10.66,-103.73
2021/10/13,16:19.5,40.25,31.75,132.75,-0.003,-0.029,1.035,0,0.03,0.061,27.98,-7.35,10.51,-104.04
2021/10/13,16:20.5,41.5,31.125,131.25,-0.004,-0.03,1.034,0.061,0,0.03,28.02,-7.31,10.56,-104.43
2021/10/13,16:21.5,40.625,30.375,128.125,-0.003,-0.029,1.035,0,0,0.061,28.02,-7.28,10.61,-104.82
2021/10/13,16:22.5,41.5,30.5,128.625,-0.004,-0.028,1.034,0.061,0,0,28.01,-7.27,10.7,-105.25
2021/10/13,16:23.5,39.625,34.75,130.625,-0.004,-0.028,1.034,0.061,0.091,0,28.02,-7.06,10.97,-105.65
2021/10/13,16:24.5,41.5,30.625,132.875,-0.004,-0.027,1.035,0.03,0.061,0.091,28.01,-7.04,10.76,-105.99
2021/10/13,16:25.5,42,33.25,131.375,-0.005,-0.027,1.034,0.03,0,0.061,28.06,-7.03,11.01,-106.45
2021/10/13,16:26.5,39.125,34.625,130.125,-0.004,-0.028,1.034,0.03,-0.03,0.061,28.01,-6.86,11.13,-106.84
2021/10/13,16:27.5,40.25,35.125,127.5,-0.003,-0.027,1.034,-0.03,-0.03,0.061,28,-6.84,11.5,-107.32
2021/10/13,16:28.5,43.125,35.375,130.75,-0.003,-0.028,1.035,0,-0.03,0.03,28.04,-6.94,11.73,-107.83
2021/10/13,16:29.5,40.125,27.75,132.875,-0.003,-0.027,1.034,0.03,0,0.03,28.04,-6.86,10.82,-108.05
2021/10/13,16:30.5,40.5,31.5,131.25,-0.003,-0.027,1.034,0.03,0,0.03,28.04,-6.79,10.77,-108.43
2021/10/13,16:31.4,43.25,35,132.125,-0.003,-0.028,1.034,0,0.03,0.122,28.08,-6.83,11.25,-108.98
2021/10/13,16:32.5,42.5,32.75,134.125,-0.004,-0.028,1.034,0.061,0.061,0,28.09,-6.8,11.12,-109.38
2021/10/13,16:33.4,40.875,32.875,133.5,-0.004,-0.028,1.032,0.091,-0.03,0.061,28.1,-6.68,10.98,-109.74
2021/10/13,16:34.4,39.875,26.625,130,-0.004,-0.026,1.033,0.03,0,0,28.09,-6.63,10.43,-110.05
2021/10/13,16:35.4,43.25,31.625,132.5,-0.004,-0.028,1.034,0.03,-0.03,0.03,28.12,-6.68,10.72,-110.56
2021/10/13,16:36.5,40.125,31.75,129,-0.003,-0.026,1.035,0,-0.03,0.091,28.14,-6.59,10.84,-110.99
2021/10/13,16:37.4,39.375,31.625,128.875,-0.004,-0.027,1.033,0.061,-0.03,0.061,28.12,-6.48,10.84,-111.39
2021/10/13,16:38.4,42.5,35.25,132.25,-0.004,-0.028,1.034,0,0,0.061,28.12,-6.45,11.27,-111.93
2021/10/13,16:39.4,44,34.5,131.125,-0.003,-0.026,1.033,0.061,0.03,0.061,28.12,-6.53,11.59,-112.5
2021/10/13,16:40.4,42.375,32.25,129,-0.004,-0.026,1.034,0.03,0,0.03,28.14,-6.55,11.51,-112.96
2021/10/13,16:41.5,41.875,31.125,130.375,-0.004,-0.027,1.034,0.061,0.03,0.061,28.18,-6.5,11.24,-113.37
2021/10/13,16:42.5,42.25,33.375,126.125,-0.004,-0.027,1.035,0.03,-0.03,0,28.17,-6.49,11.54,-113.94
2021/10/13,16:43.5,40.625,28.75,129.125,-0.003,-0.026,1.034,0.091,-0.03,0.061,28.18,-6.42,11.01,-114.28
2021/10/13,16:44.5,38.375,31.375,130.125,-0.004,-0.027,1.034,0.061,0,0.061,28.14,-6.19,10.76,-114.61
2021/10/13,16:45.5,40.875,29.625,131.625,-0.003,-0.028,1.035,0.091,0,0.03,28.2,-6.15,10.59,-115.01
2021/10/13,16:46.5,42.125,32.375,132.25,-0.003,-0.026,1.035,0,0,0.03,28.21,-6.12,10.84,-115.53
2021/10/13,16:47.5,41.5,34.375,133.125,-0.004,-0.026,1.034,0,0,0.03,28.26,-6.01,11.08,-116.02
2021/10/13,16:48.5,42.5,31.375,130.625,-0.004,-0.025,1.035,0.152,-0.03,0.061,28.37,-6.04,11.13,-116.53
2021/10/13,16:49.5,39.375,32.875,130.375,-0.006,-0.027,1.033,0.061,0.061,0.03,28.32,-5.86,11.06,-116.94
2021/10/13,16:50.5,48.5,34.75,130.375,0.043,-0.017,1.029,-4.177,-5.274,-0.976,28.24,-6.92,11.74,-117.89
2021/10/13,16:51.5,44.375,35.375,126.25,0.039,-0.003,1.022,-5.122,-5.549,2.043,28.27,-7.47,12.02,-118.48
2021/10/13,16:52.5,42.25,31.75,126.5,0.01,-0.024,1.035,0.091,-0.152,0.091,28.32,-7.18,11.56,-118.83
2021/10/13,16:53.4,47.5,35.75,130.875,0.012,-0.021,1.034,0.183,0.03,0.091,28.29,-7.07,11.9,-119.44
2021/10/13,16:54.4,45.5,34.625,132.125,0.013,-0.021,1.035,-0.244,0.122,0.091,28.31,-6.91,11.78,-119.92
2021/10/13,16:55.4,45.375,35.5,129.875,0.012,-0.021,1.034,-0.457,-0.183,0.061,28.31,-6.8,11.91,-120.47
2021/10/13,16:56.4,42.5,31.875,127,0.01,-0.02,1.036,-0.03,0.244,0.03,28.23,-6.62,11.62,-120.89
2021/10/13,16:57.4,46.75,34.5,127.75,0.01,-0.019,1.034,0.183,0,0.091,28.21,-6.6,11.99,-121.56
2021/10/13,16:58.4,44.5,34.625,129.75,0.012,-0.016,1.034,0.213,-0.305,0.03,28.14,-6.5,12,-122.08
2021/10/13,16:59.4,44.25,33.125,130.625,0.016,-0.016,1.036,0.183,-0.244,0,28.11,-6.47,11.81,-122.55
2021/10/13,17:00.4,42.75,31,130.75,0.015,-0.015,1.034,0.122,-0.091,0.061,28.12,-6.37,11.41,-122.94
2021/10/13,17:01.4,44.125,32.875,125.375,0.014,-0.013,1.034,-0.244,0.061,0,28.1,-6.33,11.7,-123.56
2021/10/13,17:02.4,44.375,35.5,123.75,0.01,-0.015,1.033,1.433,0.518,0.061,28.08,-6.21,12.27,-124.24
2021/10/13,17:03.4,45.75,37.5,131.375,0.009,-0.01,1.035,0.427,0.122,0.061,28.07,-6.07,12.49,-124.84
2021/10/13,17:04.4,39.5,36.375,127,0.011,-0.006,1.036,0.64,0.091,0.061,28.02,-5.81,12.41,-125.27
2021/10/13,17:05.4,43.875,38.875,128,0.011,-0.009,1.032,1.494,0.884,0.122,28.03,-5.67,12.85,-125.91
2021/10/13,17:06.4,44.75,33.5,127.5,0.014,-0.013,1.032,-0.305,-0.152,0.122,27.99,-5.77,12.53,-126.45
2021/10/13,17:07.4,43.75,34.75,128.625,0.014,-0.009,1.034,0.03,-0.03,0.061,27.98,-5.75,12.38,-126.97
2021/10/13,17:08.4,43.75,35.5,128.875,0.013,-0.008,1.033,-1.707,-1.006,-0.152,27.99,-5.74,12.28,-127.54
2021/10/13,17:09.3,45.75,37.875,128.75,0.011,-0.003,1.034,0.03,-0.183,0.061,27.97,-5.66,12.7,-128.23
2021/10/13,17:10.3,43.375,36.625,129.75,0.022,-0.007,1.033,0.091,0,0.061,27.93,-5.67,12.57,-128.75
2021/10/13,17:11.3,39.75,36.75,130.625,0.014,-0.001,1.032,-0.03,0,0.122,27.9,-5.43,12.33,-129.15
2021/10/13,17:12.3,41.5,39.125,126.25,0.015,-0.001,1.032,-0.03,0.03,0.091,27.89,-5.27,12.75,-129.78
2021/10/13,17:13.3,40.625,39.375,124.375,0.015,-0.001,1.032,0.03,-0.03,0,27.89,-5.14,13.05,-130.4
2021/10/13,17:14.3,40.25,37.375,130.875,0.015,-0.002,1.032,0,0.03,0.091,27.9,-5.03,12.69,-130.82
2021/10/13,17:15.3,39.25,36,128,0.014,-0.001,1.032,0.03,0.03,0,27.91,-4.91,12.44,-131.26
2021/10/13,17:16.3,44.75,38,133.125,0.014,-0.002,1.031,0.03,0.03,0.03,27.89,-4.9,12.56,-131.87
2021/10/13,17:17.4,44.375,38.875,130,0.015,-0.001,1.031,0.03,-0.03,0.03,27.9,-4.89,12.81,-132.53
2021/10/13,17:18.3,41.75,37.25,123.5,0.014,-0.001,1.032,0.03,0.03,0.03,27.89,-4.83,12.93,-133.16
2021/10/13,17:19.3,44.5,36.625,131.5,0.015,-0.001,1.032,0,0.03,0.03,27.87,-4.83,12.72,-133.71
2021/10/13,17:20.3,39.875,38.125,132.125,0.014,-0.001,1.032,0.03,0,0.03,27.9,-4.65,12.46,-134.15
2021/10/13,17:21.3,43.75,37.375,133.625,0.014,-0.001,1.033,0.061,0.03,0,27.89,-4.6,12.39,-134.71
2021/10/13,17:22.3,45.125,38.5,129.875,0.014,-0.001,1.033,0,0,0.03,27.89,-4.57,12.67,-135.4
2021/10/13,17:23.3,43.375,37,129.5,0.015,-0.002,1.033,0.03,0,-0.03,27.91,-4.53,12.59,-135.99
2021/10/13,17:24.3,41,36.25,130.25,0.015,-0.001,1.032,0.03,-0.061,0.03,27.9,-4.43,12.32,-136.47
2021/10/13,17:25.3,44.875,34,128.625,0.014,-0.001,1.033,-0.03,0.03,0.03,27.87,-4.45,12.21,-137.08
2021/10/13,17:26.3,45.875,36.625,133.875,0.013,-0.001,1.033,0.03,0.03,0.03,27.87,-4.39,12.19,-137.69
2021/10/13,17:27.3,37.875,37.625,122.875,0.014,-0.002,1.032,0,0.03,0.03,27.88,-4.15,12.35,-138.26
2021/10/13,17:28.3,43.75,35.25,129.875,0.014,-0.001,1.031,0,-0.03,0.03,27.86,-4.13,12.2,-138.84
2021/10/13,17:29.3,41.375,36.375,130.5,0.015,0,1.032,-0.061,-0.061,0.03,27.87,-4.04,12.08,-139.37
2021/10/13,17:30.2,39.875,35,132.75,0.01,-0.004,1.034,0,-0.03,0.03,27.9,-3.88,11.68,-139.8
2021/10/13,17:31.2,45.375,34.375,131.25,0.008,0.003,1.035,0.091,-0.305,0.244,27.9,-3.84,11.79,-140.44
2021/10/13,17:32.2,42.25,39.5,128.75,0.014,0.002,1.034,0.03,-0.061,0.061,27.91,-3.69,12.25,-141.15
2021/10/13,17:33.2,38.625,66,127.5,-0.176,0.124,0.905,-2.53,31.768,25.945,27.88,1.29,16.44,-141.1
2021/10/13,17:34.2,39.375,32.375,134.25,-0.037,-0.011,1.044,-0.366,23.598,4.177,27.87,1.75,14.44,-141.2
2021/10/13,17:35.2,46.25,32.25,129.875,0.026,-0.004,1.032,0.091,0.03,0.03,27.91,0.15,13.81,-142.18
2021/10/13,17:36.2,43.375,32.625,128.25,0.026,-0.002,1.033,0.091,0.061,0,27.92,-0.98,13.19,-142.96
2021/10/13,17:37.2,47.375,27.75,130.5,0.026,-0.004,1.032,0.061,0.03,0.061,27.9,-1.85,12.35,-143.64
2021/10/13,17:38.2,47.375,30.75,131.375,0.026,-0.003,1.032,0.03,-0.03,-0.03,27.91,-2.47,11.94,-144.34
2021/10/13,17:39.2,45.875,33.75,127.375,0.026,-0.002,1.032,0.061,-0.061,0.061,27.91,-2.87,11.94,-145.09
2021/10/13,17:40.2,49.25,29,131.5,0.026,-0.003,1.033,0.03,0.061,0.091,27.93,-3.21,11.44,-145.71
2021/10/13,17:41.2,43.75,33.625,125.875,0.025,-0.003,1.034,0,0,0.061,27.94,-3.32,11.46,-146.37
2021/10/13,17:42.2,46.5,32.25,130.25,0.027,-0.004,1.034,0.061,0.061,0.061,27.95,-3.46,11.25,-146.99
2021/10/13,17:43.2,46.625,32.75,128.625,0.027,-0.002,1.033,0.03,0.061,0.061,27.95,-3.53,11.22,-147.65
2021/10/13,17:44.2,45,31.125,130.25,0.026,-0.002,1.032,0.03,-0.03,0.061,27.95,-3.55,10.9,-148.18
2021/10/13,17:45.2,47.375,34.25,126.375,0.026,-0.004,1.032,0.03,0,0.061,27.97,-3.53,11.16,-148.94
2021/10/13,17:46.2,45.5,33.25,126.5,0.026,-0.004,1.033,0.03,0,0.061,27.94,-3.48,11.11,-149.59
2021/10/13,17:47.2,48.25,34.25,131.875,0.027,-0.004,1.032,0,0,-0.03,27.96,-3.46,11.05,-150.25
2021/10/13,17:48.2,45.5,30.875,131.875,0.026,-0.004,1.033,0.03,0,0.03,27.99,-3.43,10.61,-150.75
2021/10/13,17:49.2,44.75,35.75,128.5,0.027,-0.002,1.033,0,-0.03,0.03,28.04,-3.29,10.87,-151.44
2021/10/13,17:50.2,46.625,35.5,129.375,0.027,-0.003,1.033,-0.03,0.03,0.03,28.03,-3.2,10.98,-152.14
2021/10/13,17:51.2,48.875,35.625,132.625,0.026,-0.003,1.032,0.03,0,0.061,28.07,-3.14,10.99,-152.82
2021/10/13,17:52.2,46.375,32.375,130.75,0.026,-0.003,1.033,-0.061,-0.03,0.03,28.02,-3.11,10.67,-153.39
2021/10/13,17:53.1,46.375,34.125,130.25,0.026,-0.004,1.033,0,-0.03,0,28.11,-3.02,10.62,-154.02
2021/10/13,17:54.1,47.375,31.625,130.5,0.027,-0.003,1.033,0,0.03,0.061,28.04,-3,10.38,-154.61
2021/10/13,17:55.2,45.375,34.5,127.75,0.025,-0.003,1.033,0.03,-0.03,0.091,28.09,-2.86,10.49,-155.28
2021/10/13,17:56.1,46.5,31.625,123.125,0.026,-0.002,1.034,0.03,-0.03,0.061,28.12,-2.82,10.47,-155.96
2021/10/13,17:57.1,49.25,29.25,130.375,0.026,-0.004,1.033,0.061,0,0.03,28.12,-2.82,10.04,-156.52
2021/10/13,17:58.1,45.5,33.125,132,0.026,-0.003,1.035,0.061,0.061,0.03,28.11,-2.71,9.96,-157.1
2021/10/13,17:59.1,45.625,32.5,128.5,0.026,-0.003,1.033,0,0,0.061,28.13,-2.61,9.95,-157.72
2021/10/13,18:00.1,47.875,33.5,128,0.027,-0.003,1.033,0,-0.03,0.03,28.15,-2.53,10.06,-158.43
2021/10/13,18:01.1,42.875,32,128.875,0.026,-0.003,1.033,0.061,0.03,0,28.15,-2.45,9.83,-158.96
2021/10/13,18:02.1,49,31.375,129.125,0.026,-0.002,1.034,0,0.061,0.061,28.19,-2.41,9.75,-159.6
2021/10/13,18:03.1,49.375,34.375,133.125,0.026,-0.004,1.032,0.03,0.03,0.03,28.15,-2.32,9.78,-160.28
2021/10/13,18:04.1,46.5,33,126.125,0.025,-0.004,1.032,-0.03,-0.03,0.03,28.18,-2.22,9.81,-160.96
2021/10/13,18:05.1,47.375,34.875,131.5,0.026,-0.003,1.034,-0.03,0,0.091,28.2,-2.12,9.81,-161.61
2021/10/13,18:06.1,45,34.875,124.75,0.026,-0.002,1.033,0.03,0,0.03,28.22,-1.99,9.95,-162.32
2021/10/13,18:07.1,46.75,29.5,127.125,0.027,-0.003,1.035,0.091,0,0,28.23,-2.01,9.49,-162.85
2021/10/13,18:08.1,46.875,30.5,133.375,0.026,-0.003,1.033,0,-0.03,0.03,28.22,-1.99,9.1,-163.35
2021/10/13,18:09.1,48.5,33,127.625,0.026,-0.002,1.033,0,0,0.03,28.2,-1.89,9.24,-164.05
2021/10/13,18:10.1,47.625,31.25,128.375,0.026,-0.003,1.034,0.03,0,0,28.19,-1.84,9.1,-164.66
2021/10/13,18:11.1,46.75,31.375,127.75,0.026,-0.002,1.034,0.03,0,0.03,28.26,-1.78,9,-165.26
2021/10/13,18:12.0,44.125,28.875,129.625,0.026,-0.003,1.033,0,0,0,28.26,-1.75,8.6,-165.72
2021/10/13,18:13.0,42.875,30.375,131.125,0.026,-0.003,1.033,0.03,0,0.03,28.25,-1.68,8.43,-166.21
2021/10/13,18:14.0,47.25,31.625,128.375,0.026,-0.003,1.033,0,-0.061,0,28.28,-1.6,8.52,-166.85
2021/10/13,18:15.0,46.875,33.75,126.625,0.026,-0.003,1.034,0.03,-0.03,0.03,28.28,-1.47,8.75,-167.56
2021/10/13,18:16.0,46.625,38.375,129.25,0.026,-0.004,1.034,-0.03,-0.03,0.03,28.31,-1.24,9.15,-168.35
2021/10/13,18:17.0,45.875,30.875,130.625,0.026,-0.004,1.034,-0.03,-0.03,0.03,28.36,-1.28,8.67,-168.83
2021/10/13,18:18.1,42.875,34.125,130.5,0.025,-0.003,1.033,0.03,-0.03,0.03,28.33,-1.18,8.63,-169.4
2021/10/13,18:19.1,47.625,35.875,129.75,0.027,-0.003,1.033,0.03,0.03,0.061,28.36,-1.08,8.77,-170.09
2021/10/13,18:20.1,47.625,31.75,128.25,0.025,-0.004,1.033,0,0,0.03,28.33,-1.09,8.49,-170.66
2021/10/13,18:21.1,43.625,30.625,128.875,0.026,-0.003,1.034,-0.03,-0.061,-0.03,28.32,-1.09,8.16,-171.14
2021/10/13,18:22.0,46.375,32.875,129.375,0.026,-0.002,1.033,0.03,0,0.03,28.31,-1.03,8.14,-171.74
2021/10/13,18:23.0,46.375,33.125,130.25,0.026,-0.004,1.034,0.03,-0.03,0,28.34,-0.98,8.07,-172.32
2021/10/13,18:24.0,45.125,32.25,132.25,0.027,-0.003,1.034,0,0,0,28.37,-0.96,7.89,-172.83
2021/10/13,18:25.1,46.375,33.875,133.5,0.026,-0.004,1.034,0,-0.03,-0.03,28.36,-0.89,7.85,-173.4
2021/10/13,18:26.0,48.25,36,130.25,0.026,-0.003,1.034,0.03,-0.091,0,28.37,-0.76,8.04,-174.09
2021/10/13,18:27.1,45.625,33.625,128.75,0.026,-0.003,1.035,-0.03,-0.03,0.03,28.39,-0.72,7.94,-174.67
2021/10/13,18:28.0,44.375,34.125,128.75,0.026,-0.003,1.034,0.091,0.03,0.03,28.37,-0.65,7.89,-175.24
2021/10/13,18:29.1,45.375,33.5,129.5,0.027,-0.003,1.034,0.061,0.03,0,28.38,-0.62,7.75,-175.79
2021/10/13,18:30.1,46,35.875,128.125,0.026,-0.004,1.033,0.03,-0.03,-0.03,28.38,-0.52,7.84,-176.44
2021/10/13,18:31.1,45.375,34.5,125,0.026,-0.005,1.033,0.03,-0.03,0,28.42,-0.46,7.8,-177.06
2021/10/13,18:32.0,45.375,29.625,126.875,0.025,-0.003,1.033,0.061,0,0.03,28.41,-0.53,7.3,-177.49
2021/10/13,18:33.0,47.125,31.75,130.875,0.026,-0.004,1.033,0,-0.03,-0.03,28.41,-0.55,7.07,-177.99
2021/10/13,18:34.0,45.125,34,131.25,0.027,-0.003,1.033,0.061,-0.03,0.03,28.42,-0.47,7.09,-178.54
2021/10/13,18:35.0,46.125,37.75,121.875,0.026,-0.003,1.033,-0.03,-0.061,0.091,28.42,-0.23,7.53,-179.34
2021/10/13,18:36.0,46.125,33.125,129.75,0.026,-0.003,1.034,0,-0.03,0,28.43,-0.27,7.23,-179.83
2021/10/13,18:37.0,47.125,31.25,131.875,0.026,-0.003,1.034,0,0.03,0,28.44,-0.36,6.82,179.78
2021/10/13,18:38.0,47.75,30.375,130.25,0.025,-0.002,1.034,0.03,0,0,28.43,-0.4,6.51,179.34
2021/10/13,18:39.0,44.625,35.5,129.625,0.026,-0.003,1.033,0,-0.03,-0.03,28.41,-0.24,6.72,178.73
2021/10/13,18:40.0,45.5,33.25,131,0.026,-0.003,1.032,0.061,-0.03,-0.03,28.44,-0.23,6.59,178.24
2021/10/13,18:41.0,44.625,35,129.75,0.026,-0.003,1.034,0,-0.061,0,28.46,-0.14,6.65,177.68
2021/10/13,18:42.0,44.5,33.75,128,0.026,-0.004,1.034,-0.03,-0.061,0.03,28.46,-0.12,6.56,177.17
2021/10/13,18:43.0,42.75,35.75,123.25,0.026,-0.003,1.034,0.061,-0.03,0.061,28.45,0.03,6.74,176.55
2021/10/13,18:44.0,44,32.875,130.75,0.025,-0.004,1.033,-0.03,0.03,0.03,28.45,-0.02,6.42,176.12
2021/10/13,18:45.0,45.5,34,130.125,0.026,-0.003,1.033,0.03,0,0,28.5,-0.02,6.31,175.63
2021/10/13,18:45.9,45.875,30.375,132,0.026,-0.003,1.034,0.03,0,0,28.48,-0.12,5.89,175.27
2021/10/13,18:46.9,43.75,32.25,129.25,0.026,-0.002,1.033,0.03,-0.03,-0.03,28.47,-0.11,5.83,174.82
2021/10/13,18:47.9,44.75,32.875,129.125,0.026,-0.003,1.033,0.03,-0.03,-0.03,28.45,-0.07,5.79,174.34
2021/10/13,18:48.9,42.5,35.75,128.5,0.027,-0.002,1.035,0.061,0.03,0.03,28.49,0.08,6,173.78
2021/10/13,18:49.9,47.75,35.75,134.75,0.026,-0.002,1.034,0.061,0,0,28.49,0.09,5.92,173.3
2021/10/13,18:50.9,47.625,31.5,131.875,0.027,-0.003,1.033,-0.03,-0.03,0.03,28.45,-0.03,5.55,172.93
2021/10/13,18:51.9,43.5,33.75,126.375,0.027,-0.002,1.033,-0.03,0.03,0,28.46,0.04,5.62,172.43
2021/10/13,18:52.9,45.75,33.25,131.5,0.026,-0.004,1.033,0.091,-0.03,0.061,28.45,0.03,5.46,172.01
2021/10/13,18:53.9,45.625,34.375,131,0.026,-0.002,1.033,0,-0.061,-0.03,28.48,0.06,5.45,171.54
2021/10/13,18:54.9,43.5,34.375,130.25,0.027,-0.003,1.034,0,-0.03,0.03,28.44,0.11,5.44,171.08
2021/10/13,18:55.9,43.75,32.75,131.75,0.026,-0.003,1.034,0,-0.061,0,28.46,0.08,5.26,170.69
2021/10/13,18:56.9,45.125,35.25,124.5,0.026,-0.003,1.035,0,0,0.03,28.47,0.18,5.39,170.15
2021/10/13,18:57.9,46.375,32.625,133.125,0.026,-0.003,1.034,0.061,-0.03,-0.03,28.44,0.1,5.1,169.79
2021/10/13,18:58.9,43.875,33.75,131.25,0.026,-0.003,1.034,0.061,-0.03,0.061,28.49,0.13,5.04,169.38
2021/10/13,18:59.9,44.25,30.375,132.75,0.026,-0.003,1.033,0,-0.061,0.03,28.46,0.02,4.7,169.09
2021/10/13,19:00.9,47.25,35.125,126.625,0.026,-0.002,1.033,0.03,0,0,28.44,0.12,4.86,168.57
2021/10/13,19:01.9,43.5,30.625,127.625,0.027,-0.003,1.032,0,0,0,28.46,0.05,4.63,168.24
2021/10/13,19:02.9,44.25,33.25,132.75,0.026,-0.002,1.033,0,0,0.061,28.45,0.07,4.6,167.86
2021/10/13,19:03.8,44,32.75,131.5,0.026,-0.004,1.029,0,-0.061,0,28.39,0.08,4.51,167.48
2021/10/13,19:04.9,44.75,34.25,130.875,0.026,-0.002,1.03,0.03,-0.03,-0.03,28.37,0.13,4.56,167.06
2021/10/13,19:05.8,44.375,31.75,130.625,0.025,-0.003,1.03,0.061,-0.03,0,28.33,0.09,4.37,166.73
2021/10/13,19:06.8,44.25,31.25,132.375,0.027,-0.003,1.026,-0.061,0,0.03,28.28,0.02,4.18,166.42
2021/10/13,19:07.8,43.75,36.25,131.625,0.027,-0.003,1.027,0.03,-0.061,0.03,28.17,0.17,4.42,165.94
2021/10/13,19:08.8,47.125,30.5,133.5,0.026,-0.003,1.028,0.03,0.03,0,28.16,0.02,4.04,165.7
2021/10/13,19:09.9,43,34.875,129.375,0.026,-0.003,1.03,0,0,0,28.21,0.16,4.22,165.25
2021/10/13,19:10.8,45.25,32,127.5,0.026,-0.004,1.033,0.03,0,0.061,28.2,0.1,4.06,164.92
2021/10/13,19:11.8,42.875,30.375,131.125,0.026,-0.004,1.032,-0.061,-0.061,0.03,28.2,0.02,3.83,164.65
2021/10/13,19:12.8,47.25,33.625,129.625,0.026,-0.003,1.032,0,-0.061,0.03,28.19,0.04,3.84,164.28
2021/10/13,19:13.8,45.375,33.375,128.125,0.026,-0.003,1.031,0.061,0,0.03,28.18,0.08,3.85,163.9
2021/10/13,19:14.8,46,32.5,131,0.026,-0.002,1.031,0.03,0,0.03,28.13,0.05,3.74,163.59
2021/10/13,19:15.8,44.125,34.5,130.625,0.026,-0.002,1.033,0,0,0,28.15,0.12,3.84,163.2
2021/10/13,19:16.8,44.625,34,132,0.026,-0.002,1.033,0.03,-0.03,-0.03,28.16,0.14,3.81,162.85
2021/10/13,19:17.8,46.25,31.75,129.375,0.025,-0.004,1.032,-0.03,0.03,0.03,28.14,0.05,3.57,162.59
2021/10/13,19:18.8,46.375,32,130.375,0.026,-0.004,1.033,0,-0.03,0.03,28.13,0.01,3.42,162.3
2021/10/13,19:19.8,47.875,33.625,132.875,0.026,-0.004,1.032,0,0,0,28.12,0,3.36,161.99
2021/10/13,19:20.8,46.875,34.875,127.625,0.026,-0.003,1.034,0.061,0,0,28.13,0.07,3.45,161.59
2021/10/13,19:21.8,43.75,33.75,133.125,0.025,-0.004,1.032,0,0,0.03,28.17,0.1,3.43,161.28
2021/10/13,19:22.8,47.5,30,130.125,0.026,-0.004,1.033,0,0.03,0.061,28.15,-0.06,3.07,161.09
2021/10/13,19:23.8,42.125,33.375,123.625,0.027,-0.003,1.034,0.061,0,0,28.12,0.07,3.28,160.7
2021/10/13,19:24.8,45.875,32.375,134.25,0.026,-0.003,1.033,0,0,-0.03,28.14,0,3.12,160.45
2021/10/13,19:25.8,47.875,29.125,128.875,0.026,-0.003,1.033,0,0,0,28.17,-0.17,2.78,160.29
2021/10/13,19:26.8,44.375,29.5,130.5,0.025,-0.004,1.032,0.03,0.03,0.03,28.14,-0.2,2.66,160.08
2021/10/13,19:27.8,48.375,30.75,128.25,0.025,-0.004,1.033,0.03,-0.03,0.061,28.14,-0.23,2.56,159.85
2021/10/13,19:28.8,45.75,32.75,129.5,0.026,-0.003,1.032,0.061,0.03,0.03,28.16,-0.15,2.69,159.53
2021/10/13,19:29.8,47.875,37.25,131.5,0.024,-0.005,1.033,0,-0.03,0.061,28.13,0.03,2.93,159.11
2021/10/13,19:30.8,46,34.5,130.25,0.027,-0.003,1.033,0,0.03,0.03,28.18,0.04,2.96,158.8
2021/10/13,19:31.8,43.875,33.625,127,0.025,-0.003,1.033,0.03,-0.03,-0.03,28.18,0.07,2.97,158.49
2021/10/13,19:32.8,45.25,32.375,130.75,0.025,-0.004,1.032,0.03,-0.03,0.03,28.14,0.01,2.8,158.26
2021/10/13,19:33.7,47,32.25,130.75,0.027,-0.003,1.032,0,-0.03,0.03,28.14,-0.09,2.64,158.05
2021/10/13,19:34.8,45.5,30.125,129.875,0.027,-0.004,1.031,0,0.03,0,28.11,-0.2,2.43,157.87
2021/10/13,19:35.7,45.375,34.125,124.875,0.026,-0.003,1.031,0.061,-0.03,0.061,28.18,-0.09,2.59,157.53
2021/10/13,19:36.7,45.625,34,127.75,0.026,-0.003,1.033,0.061,-0.03,0,28.17,-0.06,2.64,157.24
2021/10/13,19:37.7,46.75,36.125,132,0.026,-0.003,1.033,0.061,-0.061,0.061,28.18,0,2.71,156.92
2021/10/13,19:38.7,47.125,34,129.25,0.025,-0.004,1.032,0.03,0,0,28.18,-0.05,2.6,156.68
2021/10/13,19:39.7,44.75,31.5,127.125,0.026,-0.003,1.032,0.03,0.061,0.061,28.23,-0.13,2.45,156.48
2021/10/13,19:40.7,44.75,32.625,133.125,0.026,-0.004,1.033,-0.03,-0.03,0.03,28.21,-0.16,2.36,156.27
2021/10/13,19:41.7,48.25,27.625,132.5,0.025,-0.002,1.033,0,0,0.03,28.22,-0.39,1.9,156.24
2021/10/13,19:42.7,47.625,32.5,133.75,0.025,-0.003,1.032,-0.03,0.03,0,28.22,-0.35,1.93,156.02
2021/10/13,19:43.7,46.25,38.625,126.125,0.025,-0.003,1.033,-0.03,0.03,0,28.24,-0.04,2.37,155.56
2021/10/13,19:44.7,44.25,34.625,127.75,0.025,-0.005,1.032,0.03,-0.03,0.03,28.27,0.01,2.41,155.27
2021/10/13,19:45.7,43.75,32.5,132.125,0.027,-0.004,1.033,0,0,0,28.26,-0.08,2.28,155.08
2021/10/13,19:46.7,49,32.375,130.25,0.025,-0.003,1.032,0,-0.061,-0.03,28.25,-0.22,2.04,154.94
2021/10/13,19:47.7,49.75,35.125,128.125,0.026,-0.003,1.034,0.03,0,0.061,28.31,-0.23,2.05,154.7
2021/10/13,19:48.7,47.25,32.125,127.75,0.026,-0.004,1.033,0.03,-0.03,-0.03,28.31,-0.3,1.92,154.53
2021/10/13,19:49.7,50.625,32.5,130.875,0.025,-0.002,1.033,0,-0.03,0,28.32,-0.4,1.75,154.4
2021/10/13,19:50.7,45.625,32.125,131,0.026,-0.003,1.032,0.03,-0.03,0,28.32,-0.39,1.76,154.2
2021/10/13,19:51.7,48,34.375,129.125,0.025,-0.004,1.033,0.03,0.03,0.03,28.34,-0.34,1.81,153.97
2021/10/13,19:52.7,44.25,34.125,127.625,0.026,-0.003,1.035,0.061,0,0,28.34,-0.24,1.96,153.7
2021/10/13,19:53.7,48.125,36.25,130.75,0.025,-0.004,1.033,0.061,-0.061,0.03,28.34,-0.2,1.99,153.45
2021/10/13,19:54.7,44.75,36.25,130.25,0.026,-0.004,1.032,0.03,-0.061,0.03,28.3,-0.11,2.11,153.16
2021/10/13,19:55.7,48.75,27.375,131.625,0.026,-0.003,1.032,0,0.03,0.091,28.3,-0.47,1.48,153.23
2021/10/13,19:56.7,45.125,37.75,126.875,0.024,-0.004,1.031,0.03,0,0.03,28.29,-0.18,1.87,152.84
2021/10/13,19:57.7,45.5,35.25,129.625,0.025,-0.004,1.031,0.061,0,0,28.25,-0.14,1.91,152.6
2021/10/13,19:58.7,46,33.875,133.125,0.026,-0.002,1.032,0.091,0,0.091,28.22,-0.22,1.82,152.44
2021/10/13,19:59.7,48.875,33.875,130.125,0.026,-0.003,1.032,0,0.03,-0.03,28.24,-0.32,1.67,152.31
2021/10/13,20:00.7,45.125,32.75,129.75,0.026,-0.005,1.032,0,-0.03,0.03,28.2,-0.36,1.6,152.14
2021/10/13,20:01.7,41.5,34.75,128.875,0.025,-0.003,1.031,0.03,-0.03,0,28.17,-0.21,1.81,151.87
2021/10/13,20:02.6,45.5,31.75,131,0.026,-0.002,1.033,0.061,-0.061,0.03,28.24,-0.35,1.62,151.77
2021/10/13,20:03.6,40.25,32.75,131.75,0.026,-0.002,1.032,0.061,-0.03,0,28.2,-0.28,1.73,151.56
2021/10/13,20:04.7,45.875,29.875,132,0.026,-0.003,1.033,0,-0.03,0.03,28.21,-0.48,1.4,151.52
2021/10/13,20:05.7,43.875,34.25,126.375,0.025,-0.003,1.032,0,0,0.061,28.2,-0.37,1.55,151.28
2021/10/13,20:06.7,46.625,34.25,128.875,0.026,-0.003,1.033,0,-0.03,0.03,28.2,-0.39,1.52,151.12
2021/10/13,20:07.7,45.75,33,131,0.025,-0.003,1.033,0.03,-0.03,0.03,28.22,-0.44,1.44,150.98
2021/10/13,20:08.7,41.75,31,133.875,0.027,-0.003,1.032,0.091,0,0.03,28.18,-0.48,1.41,150.85
2021/10/13,20:09.7,49.625,31.375,129,0.025,-0.003,1.034,0,-0.061,0.03,28.2,-0.64,1.14,150.82
2021/10/13,20:10.7,45.75,30.875,129.25,0.027,-0.003,1.033,0.03,0.061,0.03,28.25,-0.69,1.08,150.72
2021/10/13,20:11.6,44.875,31.375,132,0.026,-0.003,1.033,0.03,0.091,0.061,28.21,-0.67,1.09,150.6
2021/10/13,20:12.7,47.375,32.75,132.375,0.025,-0.003,1.032,0,-0.03,0,28.21,-0.67,1.07,150.47
2021/10/13,20:13.7,46.625,30.625,135.875,0.026,-0.003,1.032,0.03,0.03,0,28.25,-0.75,0.96,150.41
2021/10/13,20:14.7,48.5,34,132.5,0.026,-0.003,1.032,0,0,0,28.23,-0.71,1.02,150.25
2021/10/13,20:15.7,46.5,36.875,128.375,0.026,-0.004,1.033,-0.03,0,0.03,28.28,-0.53,1.27,149.98
2021/10/13,20:16.7,47.375,31.5,136.125,0.026,-0.003,1.034,0.03,0,0.03,28.26,-0.67,1.07,149.93
2021/10/13,20:17.6,46.75,31.375,131.75,0.025,-0.003,1.033,0,-0.061,0.03,28.32,-0.72,0.96,149.86
2021/10/13,20:18.6,48,33.25,131.25,0.025,-0.004,1.032,0.03,-0.03,0.03,28.34,-0.72,0.95,149.74
2021/10/13,20:19.6,44.5,33.5,132,0.026,-0.003,1.032,0.03,-0.03,0,28.3,-0.63,1.08,149.57
2021/10/13,20:20.6,46.375,34.375,132.125,0.026,-0.003,1.032,0,-0.03,0.061,28.31,-0.6,1.12,149.41
2021/10/13,20:21.6,42.625,31.125,132.5,0.026,-0.002,1.032,-0.061,-0.061,0.03,28.31,-0.63,1.09,149.3
2021/10/13,20:22.6,48.625,30.375,130.5,0.025,-0.004,1.034,0,-0.03,0.03,28.34,-0.8,0.8,149.31
2021/10/13,20:23.6,49,33.125,128.375,0.026,-0.003,1.034,0,-0.061,0,28.36,-0.82,0.78,149.21
2021/10/13,20:24.6,43,35.125,127.125,0.026,-0.004,1.034,0.03,0.03,0.03,28.37,-0.59,1.08,148.95
2021/10/13,20:25.6,43.25,33.875,129.5,0.026,-0.003,1.034,0.061,0,0,28.4,-0.54,1.18,148.78
2021/10/13,20:26.6,38.875,34.875,129,0.025,-0.004,1.033,0.061,0,0.03,28.38,-0.33,1.43,148.52
2021/10/13,20:27.6,47.25,29.75,130.375,0.026,-0.002,1.033,0.061,-0.03,0,28.39,-0.65,0.97,148.58
2021/10/13,20:28.6,43.875,32.5,132.375,0.026,-0.003,1.033,0,-0.03,0.03,28.4,-0.65,0.97,148.47
2021/10/13,20:29.5,46.125,35.125,125.375,0.026,-0.003,1.033,0.03,0,0,28.43,-0.61,1.05,148.29
2021/10/13,20:30.5,47.875,29.625,128.875,0.026,-0.004,1.032,0,-0.03,0.03,28.41,-0.84,0.68,148.34
2021/10/13,20:31.5,45.25,33.125,129.875,0.025,-0.003,1.032,0.061,0,0,28.41,-0.77,0.78,148.2
2021/10/13,20:32.5,45.375,33.875,131.75,0.024,-0.003,1.034,0.061,-0.03,0.061,28.46,-0.71,0.86,148.07
2021/10/13,20:33.5,43.25,29.25,129.625,0.026,-0.003,1.035,0.03,0,0.03,28.48,-0.81,0.72,148.03
2021/10/13,20:34.5,45.5,32.875,131.875,0.026,-0.003,1.035,0.03,-0.03,0.061,28.46,-0.8,0.75,147.93
2021/10/13,20:35.5,43.625,34.625,125.25,0.026,-0.003,1.033,0.091,-0.03,-0.03,28.47,-0.66,0.95,147.72
2021/10/13,20:36.5,42.25,34,126.75,0.024,-0.004,1.033,0.03,-0.03,0.03,28.46,-0.57,1.06,147.55
2021/10/13,20:37.5,47.5,30.25,134.125,0.025,-0.003,1.034,0,0,0.03,28.46,-0.8,0.7,147.59
2021/10/13,20:38.5,46.375,34.125,129,0.026,-0.003,1.032,-0.03,0,0,28.48,-0.77,0.75,147.47
2021/10/13,20:39.5,47.625,33.25,128.875,0.025,-0.003,1.033,0.03,-0.03,0.03,28.48,-0.82,0.69,147.41
2021/10/13,20:40.5,43.125,33.875,131.625,0.025,-0.003,1.032,0.03,-0.03,0,28.47,-0.71,0.84,147.24
2021/10/13,20:41.5,43,30,130.375,0.027,-0.003,1.032,0.03,-0.03,0.03,28.53,-0.83,0.71,147.21
2021/10/13,20:42.5,47.75,37.5,129.125,0.026,-0.003,1.033,0.03,0,0.03,28.48,-0.72,0.86,147.02
2021/10/13,20:43.5,46,34.75,130.5,0.025,-0.003,1.031,0,-0.061,0.03,28.52,-0.72,0.86,146.91
2021/10/13,20:44.5,44.125,33.5,135,0.026,-0.003,1.033,0.03,-0.061,0,28.51,-0.73,0.85,146.81
2021/10/13,20:45.5,46.125,31.75,131.25,0.025,-0.004,1.033,0,0,0.03,28.53,-0.85,0.66,146.79
2021/10/13,20:46.5,46.875,33.25,128.625,0.026,-0.003,1.033,0.03,-0.03,0,28.51,-0.89,0.61,146.73
2021/10/13,20:47.5,48.125,29.5,131.75,0.025,-0.004,1.034,0.03,0.03,0.091,28.56,-1.06,0.31,146.8
2021/10/13,20:48.5,48.125,36.125,134.625,0.025,-0.003,1.033,0.03,-0.03,0,28.57,-0.93,0.49,146.64
2021/10/13,20:49.5,44.875,33.75,128.75,0.024,-0.003,1.034,0.03,0,0,28.55,-0.84,0.61,146.51
2021/10/13,20:50.5,44.875,35.75,131.875,0.026,-0.002,1.034,0.03,-0.03,0,28.6,-0.75,0.77,146.35
2021/10/13,20:51.4,45.125,35.25,132,0.026,-0.003,1.033,0,-0.03,0.03,28.6,-0.72,0.82,146.22
2021/10/13,20:52.4,46.625,34.375,130.875,0.026,-0.004,1.034,-0.03,-0.03,0.03,28.61,-0.78,0.73,146.16
2021/10/13,20:53.4,46.25,31.25,133,0.025,-0.003,1.033,0.061,-0.03,0,28.58,-0.93,0.52,146.17
2021/10/13,20:54.4,45,36.375,131.375,0.026,-0.002,1.034,0.061,0.03,0,28.59,-0.78,0.73,145.99
2021/10/13,20:55.4,46.625,32.875,130.625,0.025,-0.004,1.033,0.03,-0.03,0.061,28.56,-0.88,0.58,145.96
2021/10/13,20:56.5,43.875,33.875,133.125,0.026,-0.003,1.034,0.03,0,0,28.6,-0.84,0.65,145.85
2021/10/13,20:57.5,45.75,32.75,130.375,0.025,-0.003,1.032,0,-0.061,0,28.62,-0.9,0.55,145.81
2021/10/13,20:58.5,45,30.875,131.875,0.026,-0.003,1.032,0,-0.061,0,28.63,-1,0.43,145.8
2021/10/13,20:59.4,47.25,32.5,135.5,0.026,-0.003,1.034,0.03,-0.03,0.091,28.63,-1.07,0.35,145.78
2021/10/13,21:00.4,48.125,36,131.75,0.025,-0.003,1.033,0,-0.061,0.061,28.66,-0.98,0.45,145.67
2021/10/13,21:01.4,47.875,35.5,130.125,0.026,-0.003,1.033,0.03,0,0,28.64,-0.95,0.49,145.57
2021/10/13,21:02.4,47.375,32.125,127.875,0.025,-0.004,1.032,0.061,-0.061,0,28.65,-1.05,0.34,145.57
2021/10/13,21:03.4,45.125,32.125,132.25,0.026,-0.003,1.033,0.03,-0.03,0.061,28.68,-1.05,0.35,145.52
2021/10/13,21:04.4,46.875,30.125,128.625,0.025,-0.003,1.034,0.061,0.03,-0.061,28.68,-1.17,0.17,145.56
2021/10/13,21:05.4,46.125,29.625,126.375,0.025,-0.003,1.034,0.061,0,0.03,28.7,-1.24,0.07,145.58
2021/10/13,21:06.4,43,34.5,124.75,0.025,-0.002,1.033,0.03,0,0,28.68,-0.99,0.4,145.38
2021/10/13,21:07.4,43.5,34.125,128.25,0.026,-0.003,1.034,0.061,-0.03,0.061,28.65,-0.9,0.54,145.24
2021/10/13,21:08.4,44.5,33.125,130.375,0.026,-0.003,1.034,0.03,0,0.03,28.72,-0.91,0.52,145.18
2021/10/13,21:09.4,43.25,33.125,131.25,0.025,-0.003,1.033,-0.03,-0.03,0,28.67,-0.89,0.54,145.09
2021/10/13,21:10.4,46.375,29.125,127,0.026,-0.002,1.034,0,-0.03,0.061,28.71,-1.12,0.22,145.19
2021/10/13,21:11.4,47.5,33.75,133.75,0.026,-0.003,1.033,0.03,0,0.061,28.68,-1.11,0.24,145.14
2021/10/13,21:12.4,46.375,32.25,132.75,0.026,-0.002,1.033,0,0.03,0,28.66,-1.14,0.22,145.11
2021/10/13,21:13.4,45,31.875,131.125,0.025,-0.003,1.032,0.061,0.03,0.03,28.63,-1.12,0.24,145.06
2021/10/13,21:14.4,45.375,32.75,128.625,0.025,-0.003,1.031,0,-0.061,0,28.65,-1.1,0.27,145
2021/10/13,21:15.4,43.375,33.75,130.75,0.026,-0.004,1.033,0,-0.03,0,28.68,-0.99,0.4,144.87
2021/10/13,21:16.4,44.625,34.875,134,0.026,-0.003,1.034,0,0,0.061,28.7,-0.92,0.5,144.77
2021/10/13,21:17.4,46,33.75,128.75,0.025,-0.003,1.032,0.061,0,0.03,28.68,-0.96,0.44,144.72
2021/10/13,21:18.4,43.875,33.5,132.875,0.024,-0.004,1.033,0.03,-0.03,0.061,28.7,-0.93,0.46,144.65
2021/10/13,21:19.4,49.25,30.875,129.625,0.026,-0.003,1.032,0.03,-0.03,0.091,28.68,-1.17,0.13,144.76
2021/10/13,21:20.4,42.375,31.25,133.25,0.026,-0.003,1.032,0.061,-0.03,0.03,28.7,-1.11,0.22,144.69
2021/10/13,21:21.4,47.625,30.375,130.375,0.025,-0.004,1.033,0.03,-0.03,0,28.68,-1.25,0.02,144.75
2021/10/13,21:22.4,45.625,31.875,129.875,0.026,-0.003,1.033,0,-0.061,-0.03,28.72,-1.23,0.07,144.7
2021/10/13,21:23.4,41.875,30.375,127.125,0.025,-0.004,1.031,-0.03,0,0,28.68,-1.17,0.14,144.63
2021/10/13,21:24.4,45.5,33.375,131.875,0.026,-0.003,1.031,-0.03,0,0.061,28.7,-1.12,0.22,144.57
2021/10/13,21:25.3,44.625,30,132.625,0.026,-0.003,1.032,0.03,0,0,28.71,-1.2,0.11,144.58
2021/10/13,21:26.3,47.375,30.625,132.375,0.025,-0.004,1.032,0.03,0,0.03,28.68,-1.3,-0.03,144.62
2021/10/13,21:27.3,43.625,33.75,134.25,0.026,-0.004,1.031,0.061,0,0,28.69,-1.13,0.19,144.49
2021/10/13,21:28.3,45.125,33.5,131.5,0.027,-0.003,1.031,0.03,-0.03,0.03,28.7,-1.1,0.26,144.42
2021/10/13,21:29.3,44.875,32.875,131.875,0.026,-0.003,1.032,0.091,-0.03,0.03,28.69,-1.09,0.28,144.37
2021/10/13,21:30.3,44.125,32.25,130.5,0.025,-0.003,1.033,0.061,0,0,28.75,-1.08,0.27,144.32
2021/10/13,21:31.3,47.625,32.875,132.25,0.026,-0.003,1.032,0.03,0,0,28.73,-1.17,0.17,144.33
2021/10/13,21:32.3,46.25,33.625,130.125,0.025,-0.002,1.034,0.03,0,0,28.72,-1.14,0.21,144.27
2021/10/13,21:33.3,42.5,32.375,127.375,0.025,-0.003,1.033,0.03,0.03,-0.03,28.7,-1.07,0.31,144.18
2021/10/13,21:34.3,44.625,32.625,128,0.026,-0.002,1.032,-0.03,0,-0.061,28.69,-1.09,0.29,144.14
2021/10/13,21:35.3,45.125,32.5,131.375,0.026,-0.003,1.032,0.061,-0.061,0.061,28.67,-1.12,0.25,144.12
2021/10/13,21:36.3,47.625,35,129.5,0.027,-0.003,1.032,0.03,0,0,28.71,-1.13,0.25,144.07
2021/10/13,21:37.3,47.125,30.875,130.125,0.026,-0.003,1.033,0.03,-0.03,0.061,28.68,-1.27,0.06,144.13
2021/10/13,21:38.2,45.5,34.125,130.875,0.026,-0.003,1.033,0.091,-0.03,0.091,28.67,-1.19,0.19,144.04
2021/10/13,21:39.3,47.75,35.375,130.125,0.026,-0.004,1.034,0.03,0.03,0.03,28.73,-1.16,0.22,143.98
2021/10/13,21:40.2,42.25,33.75,125.875,0.025,-0.004,1.032,0.03,0,0.03,28.68,-1.02,0.36,143.86
2021/10/13,21:41.2,45.125,31.75,129.5,0.026,-0.003,1.034,0.03,0,0.091,28.75,-1.13,0.23,143.87
2021/10/13,21:42.2,45.375,32.75,132.375,0.026,-0.003,1.033,0.03,-0.03,0.03,28.78,-1.16,0.2,143.85
2021/10/13,21:43.2,45.25,31.375,132.25,0.026,-0.003,1.035,0.061,-0.03,0.03,28.79,-1.24,0.12,143.86
2021/10/13,21:44.3,42.375,30.125,130.625,0.026,-0.003,1.034,0.061,-0.03,0,28.8,-1.24,0.12,143.83
2021/10/13,21:45.2,44.25,35,130.25,0.025,-0.003,1.034,0.03,0.03,0.03,28.84,-1.09,0.29,143.71
2021/10/13,21:46.2,45.375,34.375,129.25,0.026,-0.003,1.032,0.091,0.03,-0.03,28.83,-1.08,0.31,143.65
2021/10/13,21:47.2,48.375,32.5,130.875,0.026,-0.003,1.034,0.03,0,0.061,28.78,-1.23,0.1,143.71
2021/10/13,21:48.2,45.75,34.125,132.125,0.026,-0.003,1.033,0.03,-0.061,0,28.79,-1.18,0.16,143.65
2021/10/13,21:49.2,44.125,33.625,131.875,0.026,-0.003,1.033,-0.03,-0.03,0,28.8,-1.13,0.23,143.57
2021/10/13,21:50.2,41.5,33.25,128,0.026,-0.003,1.032,0,0,0.061,28.8,-1.03,0.36,143.47
2021/10/13,21:51.2,43,32.75,132.875,0.026,-0.003,1.033,0.03,-0.03,0.061,28.81,-1.05,0.34,143.43
2021/10/13,21:52.2,44.625,30.375,129.75,0.026,-0.003,1.034,0.03,0,0.03,28.79,-1.2,0.14,143.48
2021/10/13,21:53.2,46.625,31.625,131.75,0.025,-0.004,1.032,0,-0.03,0.061,28.76,-1.29,0.01,143.52
2021/10/13,21:54.1,45.375,31.875,126.75,0.027,-0.003,1.033,0,-0.061,0.061,28.79,-1.31,-0.01,143.51
2021/10/13,21:55.1,44.875,34,131.5,0.026,-0.003,1.032,0,-0.03,-0.03,28.78,-1.22,0.12,143.42
2021/10/13,21:56.1,42.5,30,128.75,0.027,-0.003,1.032,0.03,-0.03,0,28.77,-1.27,0.07,143.42
2021/10/13,21:57.1,48.125,35.375,136.75,0.025,-0.002,1.034,0,-0.03,0,28.79,-1.23,0.12,143.37
2021/10/13,21:58.1,46.375,33.25,129.875,0.025,-0.003,1.033,0.03,-0.03,0.061,28.84,-1.25,0.09,143.36
2021/10/13,21:59.1,38.875,33.5,124.375,0.025,-0.002,1.033,0,-0.03,0,28.84,-1,0.38,143.18
2021/10/13,22:00.1,45.375,29.5,132.625,0.026,-0.003,1.033,-0.03,0,0,28.85,-1.23,0.07,143.28
2021/10/13,22:01.1,44.625,35.375,131.625,0.026,-0.003,1.033,0,-0.03,-0.03,28.84,-1.12,0.22,143.17
2021/10/13,22:02.1,44.125,29.875,128.75,0.025,-0.003,1.033,0.03,-0.03,0.03,28.87,-1.24,0.04,143.22
2021/10/13,22:03.1,42.625,34,126.25,0.025,-0.003,1.033,0.061,-0.03,0.061,28.85,-1.1,0.21,143.11
2021/10/13,22:04.1,45.75,31.75,130.5,0.025,-0.003,1.033,0.061,-0.091,0.061,28.91,-1.22,0.07,143.14
2021/10/13,22:05.1,47,31.625,132.125,0.026,-0.002,1.033,0.03,-0.03,0,28.89,-1.33,-0.06,143.19
2021/10/13,22:06.1,42.875,35.5,132.25,0.026,-0.003,1.033,0.061,-0.061,0,28.89,-1.11,0.21,143.03
2021/10/13,22:07.1,46.375,29.75,130.5,0.026,-0.004,1.033,0.03,-0.061,-0.03,28.91,-1.33,-0.08,143.14
2021/10/13,22:08.1,42,34.375,127.5,0.026,-0.003,1.033,0.03,0.03,0.03,28.91,-1.13,0.17,142.99
2021/10/13,22:09.1,45.625,28.875,127,0.025,-0.003,1.034,0.061,-0.03,0.061,28.91,-1.34,-0.11,143.11
2021/10/13,22:10.0,46.375,32.75,133.25,0.025,-0.003,1.031,0.03,-0.091,0.091,28.9,-1.34,-0.1,143.1
2021/10/13,22:11.0,43.625,32,133.875,0.026,-0.003,1.032,0.03,-0.03,0.03,28.92,-1.29,-0.01,143.05
2021/10/13,22:12.0,44.875,33.875,124.375,0.027,-0.002,1.033,0.03,-0.061,0.03,28.91,-1.24,0.09,142.99
2021/10/13,22:13.0,45.25,32.875,133,0.027,-0.003,1.035,0.03,-0.061,0.03,28.91,-1.27,0.07,142.97
2021/10/13,22:14.0,44.75,35.125,133.375,0.025,-0.003,1.033,0,0,0.03,28.92,-1.16,0.19,142.88
2021/10/13,22:15.0,39.75,30.25,131,0.025,-0.003,1.032,0.03,0,0,28.9,-1.14,0.2,142.84
2021/10/13,22:16.0,42.375,30.75,126.25,0.025,-0.002,1.032,0.03,0,0.03,28.89,-1.19,0.14,142.84
2021/10/13,22:17.0,44.5,35.125,131.125,0.026,-0.003,1.033,0,0,0.03,28.92,-1.12,0.23,142.76
2021/10/13,22:18.0,40.75,30.25,127.25,0.026,-0.002,1.032,0,-0.03,0.061,28.89,-1.16,0.19,142.74
2021/10/13,22:19.0,42.125,32.625,133.25,0.025,-0.002,1.032,0.03,-0.091,0,28.91,-1.13,0.24,142.69
2021/10/13,22:20.0,46.625,29.75,124.875,0.025,-0.003,1.034,0.03,-0.061,-0.03,28.93,-1.36,-0.08,142.82
2021/10/13,22:21.0,45.125,32.75,128.875,0.026,-0.003,1.033,-0.03,0,0.03,28.91,-1.33,-0.05,142.79
2021/10/13,22:22.0,44.875,31.375,132.75,0.026,-0.002,1.033,-0.03,-0.03,0,28.94,-1.37,-0.07,142.8
2021/10/13,22:23.0,46.375,32,129.125,0.025,-0.003,1.031,0.061,-0.061,0,28.92,-1.41,-0.13,142.82
2021/10/13,22:24.0,46.25,34.25,129.875,0.026,-0.002,1.031,-0.03,-0.03,0,28.92,-1.34,-0.04,142.77
2021/10/13,22:24.9,44,34.375,126.5,0.025,-0.003,1.032,0,0,0.03,28.91,-1.22,0.11,142.68
2021/10/13,22:25.9,44.875,34.375,130.5,0.026,-0.003,1.033,0.03,-0.061,-0.03,28.95,-1.19,0.15,142.62
2021/10/13,22:26.9,45.5,31,128.875,0.026,-0.002,1.032,0.061,0,0.03,28.91,-1.32,-0.02,142.68
2021/10/13,22:27.9,44.25,35.25,128.5,0.025,-0.003,1.033,0,-0.03,0.03,28.91,-1.18,0.14,142.57
2021/10/13,22:28.9,44.625,32.625,125.625,0.025,-0.004,1.032,0,-0.03,-0.061,28.93,-1.22,0.07,142.57
2021/10/13,22:29.9,40.625,34.75,127,0.026,-0.003,1.033,0.061,0,0.03,28.96,-1.03,0.31,142.42
2021/10/13,22:30.9,44,33.875,127.375,0.025,-0.004,1.035,0,-0.061,0.061,28.97,-1.06,0.26,142.39
2021/10/13,22:31.9,42.125,32,131.5,0.025,-0.003,1.033,0.03,-0.061,0,28.96,-1.11,0.2,142.37
2021/10/13,22:32.9,45.75,34.25,129.75,0.026,-0.002,1.031,0,-0.091,0,28.95,-1.16,0.16,142.36
2021/10/13,22:33.9,44.25,31.875,126.5,0.025,-0.002,1.032,0.03,-0.03,0,28.96,-1.24,0.06,142.38
2021/10/13,22:34.9,38.875,37.5,121.25,0.026,-0.002,1.033,0,-0.03,0,28.98,-0.85,0.5,142.1
2021/10/13,22:35.9,41.5,34.125,128.25,0.025,-0.003,1.033,0.03,0,0.03,28.99,-0.87,0.47,142.04
2021/10/13,22:36.8,45.25,28,131,0.026,-0.002,1.032,0,0,0.061,28.96,-1.25,-0.02,142.23
2021/10/13,22:37.9,44.25,30.375,129.75,0.026,-0.003,1.031,0.061,-0.03,-0.03,28.96,-1.36,-0.13,142.27
2021/10/13,22:38.9,46,32,128.625,0.026,-0.003,1.033,0.061,-0.03,0,29.01,-1.41,-0.18,142.3
2021/10/13,22:39.8,43.25,32.625,124.875,0.025,-0.003,1.032,0.03,0,0,28.99,-1.33,-0.07,142.24
2021/10/13,22:40.8,44.375,33.5,129.5,0.025,-0.003,1.033,0.03,-0.03,0,29.01,-1.28,-0.01,142.2
2021/10/13,22:41.8,45.25,28.375,130.875,0.025,-0.004,1.033,0,0,0,29.01,-1.47,-0.29,142.32
2021/10/13,22:42.8,46.375,29.75,133.875,0.026,-0.003,1.033,0.03,-0.03,0.061,29,-1.56,-0.4,142.39
2021/10/13,22:43.8,43.625,35.125,131.375,0.025,-0.003,1.033,0.03,-0.061,-0.03,28.95,-1.32,-0.09,142.25
2021/10/13,22:44.8,42,32.75,128.25,0.026,-0.003,1.032,0.061,0.03,0.061,29,-1.23,0.03,142.18
2021/10/13,22:45.8,46.125,30.625,128.875,0.027,-0.002,1.031,0.061,0,0,28.97,-1.4,-0.16,142.26
2021/10/13,22:46.8,43.25,33.125,129.75,0.025,-0.004,1.031,-0.03,-0.061,0,29,-1.3,-0.05,142.2
2021/10/13,22:47.8,44.375,32.5,128.5,0.025,-0.003,1.031,0.03,-0.03,0.03,28.98,-1.31,-0.04,142.19
2021/10/13,22:48.8,46.5,29.5,129.125,0.026,-0.004,1.032,0.03,0,0,28.96,-1.49,-0.3,142.3
2021/10/13,22:49.8,43.75,31.5,119.75,0.026,-0.002,1.034,0.03,-0.03,0,29.03,-1.46,-0.22,142.28
2021/10/13,22:50.8,44.25,33.25,127.875,0.026,-0.003,1.033,0.03,-0.03,0.061,29.02,-1.37,-0.1,142.23
2021/10/13,22:51.8,47.25,34.125,128.125,0.026,-0.002,1.033,0.03,-0.03,0.03,29,-1.38,-0.1,142.22
2021/10/13,22:52.8,41.75,31.25,130.625,0.026,-0.003,1.033,0.061,-0.03,0.03,29.06,-1.33,-0.03,142.19
2021/10/13,22:53.7,44.875,33,125.25,0.026,-0.002,1.034,0,0.061,0.03,29.02,-1.33,-0.02,142.17
2021/10/13,22:54.7,42.25,32.875,131,0.026,-0.003,1.033,0,-0.061,0.03,29.09,-1.26,0.07,142.11
2021/10/13,22:55.7,40.875,29,126.5,0.025,-0.003,1.033,0.03,-0.061,0.061,29.06,-1.32,-0.02,142.14
2021/10/13,22:56.7,48,32.375,128.5,0.026,-0.002,1.033,0,-0.061,0.03,29.06,-1.45,-0.17,142.21
2021/10/13,22:57.7,47.875,33.875,126.625,0.026,-0.004,1.031,0.061,0,0,28.99,-1.46,-0.2,142.22
2021/10/13,22:58.7,41.875,35.875,121.75,0.026,-0.003,1.032,-0.03,0,0.03,29,-1.18,0.12,142.04
2021/10/13,22:59.7,40.75,33.875,128.5,0.026,-0.002,1.032,0.03,-0.03,-0.03,29,-1.07,0.26,141.93
2021/10/13,23:00.7,44.375,32.25,130.75,0.025,-0.002,1.032,0.03,0,-0.03,28.95,-1.19,0.12,141.96
2021/10/13,23:01.7,45.625,36.875,129.875,0.026,-0.003,1.032,-0.03,-0.03,0,28.97,-1.13,0.21,141.88
2021/10/13,23:02.8,43.625,31.5,124.875,0.025,-0.004,1.033,0.03,-0.061,0.061,29.01,-1.24,0.05,141.92
2021/10/13,23:03.7,46.875,35.75,121,0.025,-0.003,1.032,0.061,-0.061,0,28.97,-1.23,0.05,141.89
2021/10/13,23:04.8,46.75,34.5,133.875,0.025,-0.003,1.031,0.03,-0.03,0,28.95,-1.28,0.01,141.89
2021/10/13,23:05.8,46.125,33.125,129.5,0.026,-0.003,1.033,-0.061,-0.122,0.03,28.95,-1.35,-0.07,141.92
2021/10/13,23:06.8,46.625,31.375,128.875,0.025,-0.002,1.031,0.03,-0.061,-0.03,28.95,-1.46,-0.22,141.99
2021/10/13,23:07.8,43.75,35.5,125.125,0.026,-0.002,1.032,0.03,-0.03,0.091,28.92,-1.27,0.02,141.87
2021/10/13,23:08.8,45.125,32.125,124.875,0.026,-0.002,1.034,0.061,-0.03,0,28.97,-1.35,-0.07,141.9
2021/10/13,23:09.8,43.875,32.75,127.875,0.026,-0.003,1.032,0.03,0,0,28.95,-1.34,-0.04,141.88
2021/10/13,23:10.8,47,32,133.375,0.025,-0.003,1.032,0.03,-0.03,0,28.92,-1.44,-0.18,141.94
2021/10/13,23:11.8,43.875,35.125,129.625,0.026,-0.003,1.032,0,0,0,28.93,-1.29,0.01,141.84
2021/10/13,23:12.8,47.625,34.5,130,0.026,-0.002,1.032,0.03,-0.061,0.061,28.92,-1.35,-0.05,141.86
2021/10/13,23:13.8,41.375,28.625,124.625,0.027,-0.002,1.032,-0.03,0,0.061,28.91,-1.44,-0.14,141.9
2021/10/13,23:14.8,46.125,29.625,130.625,0.026,-0.002,1.034,0.061,-0.03,0,28.94,-1.58,-0.32,142
2021/10/13,23:15.8,45.625,34.125,129.125,0.026,-0.002,1.033,0.061,-0.061,0.03,28.95,-1.47,-0.17,141.95
2021/10/13,23:16.8,42,33.5,128.125,0.026,-0.002,1.033,0,-0.061,0.061,28.92,-1.32,0.02,141.85
2021/10/13,23:17.8,43.875,32.75,126.25,0.026,-0.002,1.032,0.03,0,0,28.95,-1.33,0.02,141.84
2021/10/13,23:18.8,45.625,33,126.25,0.026,-0.004,1.032,0.03,-0.061,0,28.95,-1.38,-0.06,141.85
2021/10/13,23:19.8,47.375,30.75,132.125,0.025,-0.003,1.031,0.03,-0.03,0.03,28.94,-1.53,-0.28,141.96
2021/10/13,23:20.8,48.5,31.375,127,0.025,-0.002,1.032,0,0,0,28.94,-1.63,-0.42,142.06
2021/10/13,23:21.8,41.375,31.625,128.25,0.026,-0.003,1.032,0.03,0,0,28.92,-1.45,-0.2,141.97
2021/10/13,23:22.8,46.75,30.875,130.5,0.026,-0.003,1.032,0.061,-0.03,-0.03,28.94,-1.56,-0.33,142.04
2021/10/13,23:23.7,44.875,31.75,121.875,0.026,-0.002,1.033,0.03,-0.03,0.061,28.96,-1.53,-0.28,142.04
2021/10/13,23:24.7,44.625,34.875,126.5,0.027,-0.002,1.035,0.03,0,0,29,-1.38,-0.08,141.95
2021/10/13,23:25.7,47,33.625,127,0.025,-0.002,1.034,0,-0.061,0.03,29.03,-1.41,-0.12,141.96
2021/10/13,23:26.7,46.25,32.25,131.25,0.027,-0.003,1.034,0.03,-0.061,0.03,29,-1.48,-0.18,142
2021/10/13,23:27.7,48.875,30.875,129.75,0.026,-0.003,1.032,0,0,0,28.98,-1.62,-0.4,142.12
2021/10/13,23:28.7,44.25,28.625,128.375,0.026,-0.003,1.033,0.061,0.03,0.03,28.97,-1.66,-0.45,142.18
2021/10/13,23:29.7,44,31.125,130.5,0.025,-0.003,1.031,0.03,0,0.03,28.99,-1.56,-0.34,142.15
2021/10/13,23:30.7,46.625,30.875,130.875,0.025,-0.002,1.032,0,-0.03,0.03,28.97,-1.59,-0.38,142.2
2021/10/13,23:31.7,41.75,30.125,127,0.026,-0.003,1.032,0,-0.03,-0.03,28.99,-1.51,-0.26,142.16
2021/10/13,23:32.7,49,34.625,129.625,0.027,-0.002,1.033,0.03,-0.03,0,29.02,-1.51,-0.24,142.17
2021/10/13,23:33.7,48,37.375,127.125,0.026,-0.002,1.034,0.061,-0.03,0,29.02,-1.37,-0.06,142.07
